#
# Results on Tuesday March 31 2020 11:15:32 UTC.
# USER AGENT: Mozilla/5.0 (Windows NT 10.0; Win64; x64) AppleWebKit/537.36 (KHTML, like Gecko) Chrome/80.0.3987.149 Safari/537.36
# Design number was non-random = 76
#
# Columns below this comment are as follows:
# 1. Time results were received.
# 2. MD5 hash of participant's IP address.
# 3. Controller name.
# 4. Item number.
# 5. Element number.
# 6. Type.
# 7. Group.
# 8. PennElementType.
# 9. PennElementName.
# 10. Parameter.
# 11. Value.
# 12. EventTime.
# 13. ID.
# 14. Comments.
1585653332,1baa4fb752f7ebba39b52132ef756e46,PennController,1,0,intro,NULL,PennController,0,_Trial_,Start,1585653033337,kayla,NULL
1585653332,1baa4fb752f7ebba39b52132ef756e46,PennController,1,0,intro,NULL,PennController,0,_Header_,Start,1585653033337,kayla,NULL
1585653332,1baa4fb752f7ebba39b52132ef756e46,PennController,1,0,intro,NULL,PennController,0,_Header_,End,1585653033602,kayla,NULL
1585653332,1baa4fb752f7ebba39b52132ef756e46,PennController,1,0,intro,NULL,Html,demographic,age,23,1585653066847,kayla,text input
1585653332,1baa4fb752f7ebba39b52132ef756e46,PennController,1,0,intro,NULL,Html,demographic,first_language,Chinese,1585653066847,kayla,text input
1585653332,1baa4fb752f7ebba39b52132ef756e46,PennController,1,0,intro,NULL,Html,demographic,feedback, ,1585653066847,kayla,text input
1585653332,1baa4fb752f7ebba39b52132ef756e46,PennController,1,0,intro,NULL,Html,demographic,gender,female,1585653066847,kayla,radio button
1585653332,1baa4fb752f7ebba39b52132ef756e46,PennController,1,0,intro,NULL,Html,demographic,is_first_language_english,No,1585653066847,kayla,radio button
1585653332,1baa4fb752f7ebba39b52132ef756e46,PennController,1,0,intro,NULL,Html,demographic,learn_english_age,5-10,1585653066847,kayla,radio button
1585653332,1baa4fb752f7ebba39b52132ef756e46,PennController,1,0,intro,NULL,Html,demographic,proficiency,3,1585653066847,kayla,radio button
1585653332,1baa4fb752f7ebba39b52132ef756e46,PennController,1,0,intro,NULL,PennController,0,_Trial_,End,1585653066848,kayla,NULL
1585653332,1baa4fb752f7ebba39b52132ef756e46,PennController,2,0,practice_color,NULL,PennController,1,_Trial_,Start,1585653066854,kayla,NULL
1585653332,1baa4fb752f7ebba39b52132ef756e46,PennController,2,0,practice_color,NULL,PennController,1,_Header_,Start,1585653066854,kayla,NULL
1585653332,1baa4fb752f7ebba39b52132ef756e46,PennController,2,0,practice_color,NULL,PennController,1,_Header_,End,1585653067118,kayla,NULL
1585653332,1baa4fb752f7ebba39b52132ef756e46,PennController,2,0,practice_color,NULL,PennController,1,_Trial_,End,1585653082179,kayla,NULL
1585653332,1baa4fb752f7ebba39b52132ef756e46,PennController,6,0,color_matching,NULL,PennController,10,_Trial_,Start,1585653082181,kayla,NULL
1585653332,1baa4fb752f7ebba39b52132ef756e46,PennController,6,0,color_matching,NULL,PennController,10,_Header_,Start,1585653082181,kayla,NULL
1585653332,1baa4fb752f7ebba39b52132ef756e46,PennController,6,0,color_matching,NULL,PennController,10,_Header_,End,1585653082444,kayla,NULL
1585653332,1baa4fb752f7ebba39b52132ef756e46,PennController,6,0,color_matching,NULL,PennController,10,_Trial_,End,1585653083978,kayla,NULL
1585653332,1baa4fb752f7ebba39b52132ef756e46,PennController,10,0,color_matching,NULL,PennController,14,_Trial_,Start,1585653083980,kayla,NULL
1585653332,1baa4fb752f7ebba39b52132ef756e46,PennController,10,0,color_matching,NULL,PennController,14,_Header_,Start,1585653083980,kayla,NULL
1585653332,1baa4fb752f7ebba39b52132ef756e46,PennController,10,0,color_matching,NULL,PennController,14,_Header_,End,1585653084244,kayla,NULL
1585653332,1baa4fb752f7ebba39b52132ef756e46,PennController,10,0,color_matching,NULL,PennController,14,_Trial_,End,1585653085777,kayla,NULL
1585653332,1baa4fb752f7ebba39b52132ef756e46,PennController,3,0,color_matching,NULL,PennController,7,_Trial_,Start,1585653085779,kayla,NULL
1585653332,1baa4fb752f7ebba39b52132ef756e46,PennController,3,0,color_matching,NULL,PennController,7,_Header_,Start,1585653085779,kayla,NULL
1585653332,1baa4fb752f7ebba39b52132ef756e46,PennController,3,0,color_matching,NULL,PennController,7,_Header_,End,1585653086044,kayla,NULL
1585653332,1baa4fb752f7ebba39b52132ef756e46,PennController,3,0,color_matching,NULL,PennController,7,_Trial_,End,1585653087577,kayla,NULL
1585653332,1baa4fb752f7ebba39b52132ef756e46,PennController,4,0,color_matching,NULL,PennController,8,_Trial_,Start,1585653087579,kayla,NULL
1585653332,1baa4fb752f7ebba39b52132ef756e46,PennController,4,0,color_matching,NULL,PennController,8,_Header_,Start,1585653087579,kayla,NULL
1585653332,1baa4fb752f7ebba39b52132ef756e46,PennController,4,0,color_matching,NULL,PennController,8,_Header_,End,1585653087844,kayla,NULL
1585653332,1baa4fb752f7ebba39b52132ef756e46,PennController,4,0,color_matching,NULL,PennController,8,_Trial_,End,1585653089377,kayla,NULL
1585653332,1baa4fb752f7ebba39b52132ef756e46,PennController,19,0,color_matching,NULL,PennController,23,_Trial_,Start,1585653089379,kayla,NULL
1585653332,1baa4fb752f7ebba39b52132ef756e46,PennController,19,0,color_matching,NULL,PennController,23,_Header_,Start,1585653089379,kayla,NULL
1585653332,1baa4fb752f7ebba39b52132ef756e46,PennController,19,0,color_matching,NULL,PennController,23,_Header_,End,1585653089644,kayla,NULL
1585653332,1baa4fb752f7ebba39b52132ef756e46,PennController,19,0,color_matching,NULL,PennController,23,_Trial_,End,1585653091177,kayla,NULL
1585653332,1baa4fb752f7ebba39b52132ef756e46,PennController,18,0,color_matching,NULL,PennController,22,_Trial_,Start,1585653091179,kayla,NULL
1585653332,1baa4fb752f7ebba39b52132ef756e46,PennController,18,0,color_matching,NULL,PennController,22,_Header_,Start,1585653091179,kayla,NULL
1585653332,1baa4fb752f7ebba39b52132ef756e46,PennController,18,0,color_matching,NULL,PennController,22,_Header_,End,1585653091444,kayla,NULL
1585653332,1baa4fb752f7ebba39b52132ef756e46,PennController,18,0,color_matching,NULL,PennController,22,_Trial_,End,1585653092977,kayla,NULL
1585653332,1baa4fb752f7ebba39b52132ef756e46,PennController,14,0,color_matching,NULL,PennController,18,_Trial_,Start,1585653092979,kayla,NULL
1585653332,1baa4fb752f7ebba39b52132ef756e46,PennController,14,0,color_matching,NULL,PennController,18,_Header_,Start,1585653092979,kayla,NULL
1585653332,1baa4fb752f7ebba39b52132ef756e46,PennController,14,0,color_matching,NULL,PennController,18,_Header_,End,1585653093244,kayla,NULL
1585653332,1baa4fb752f7ebba39b52132ef756e46,PennController,14,0,color_matching,NULL,PennController,18,_Trial_,End,1585653094777,kayla,NULL
1585653332,1baa4fb752f7ebba39b52132ef756e46,PennController,20,0,color_matching,NULL,PennController,24,_Trial_,Start,1585653094779,kayla,NULL
1585653332,1baa4fb752f7ebba39b52132ef756e46,PennController,20,0,color_matching,NULL,PennController,24,_Header_,Start,1585653094779,kayla,NULL
1585653332,1baa4fb752f7ebba39b52132ef756e46,PennController,20,0,color_matching,NULL,PennController,24,_Header_,End,1585653095044,kayla,NULL
1585653332,1baa4fb752f7ebba39b52132ef756e46,PennController,20,0,color_matching,NULL,PennController,24,_Trial_,End,1585653096577,kayla,NULL
1585653332,1baa4fb752f7ebba39b52132ef756e46,PennController,8,0,color_matching,NULL,PennController,12,_Trial_,Start,1585653096579,kayla,NULL
1585653332,1baa4fb752f7ebba39b52132ef756e46,PennController,8,0,color_matching,NULL,PennController,12,_Header_,Start,1585653096579,kayla,NULL
1585653332,1baa4fb752f7ebba39b52132ef756e46,PennController,8,0,color_matching,NULL,PennController,12,_Header_,End,1585653096844,kayla,NULL
1585653332,1baa4fb752f7ebba39b52132ef756e46,PennController,8,0,color_matching,NULL,PennController,12,_Trial_,End,1585653098377,kayla,NULL
1585653332,1baa4fb752f7ebba39b52132ef756e46,PennController,12,0,color_matching,NULL,PennController,16,_Trial_,Start,1585653098379,kayla,NULL
1585653332,1baa4fb752f7ebba39b52132ef756e46,PennController,12,0,color_matching,NULL,PennController,16,_Header_,Start,1585653098379,kayla,NULL
1585653332,1baa4fb752f7ebba39b52132ef756e46,PennController,12,0,color_matching,NULL,PennController,16,_Header_,End,1585653098644,kayla,NULL
1585653332,1baa4fb752f7ebba39b52132ef756e46,PennController,12,0,color_matching,NULL,PennController,16,_Trial_,End,1585653100177,kayla,NULL
1585653332,1baa4fb752f7ebba39b52132ef756e46,PennController,9,0,color_matching,NULL,PennController,13,_Trial_,Start,1585653100180,kayla,NULL
1585653332,1baa4fb752f7ebba39b52132ef756e46,PennController,9,0,color_matching,NULL,PennController,13,_Header_,Start,1585653100180,kayla,NULL
1585653332,1baa4fb752f7ebba39b52132ef756e46,PennController,9,0,color_matching,NULL,PennController,13,_Header_,End,1585653100444,kayla,NULL
1585653332,1baa4fb752f7ebba39b52132ef756e46,PennController,9,0,color_matching,NULL,PennController,13,_Trial_,End,1585653100445,kayla,NULL
1585653332,1baa4fb752f7ebba39b52132ef756e46,PennController,5,0,color_matching,NULL,PennController,9,_Trial_,Start,1585653100447,kayla,NULL
1585653332,1baa4fb752f7ebba39b52132ef756e46,PennController,5,0,color_matching,NULL,PennController,9,_Header_,Start,1585653100447,kayla,NULL
1585653332,1baa4fb752f7ebba39b52132ef756e46,PennController,5,0,color_matching,NULL,PennController,9,_Header_,End,1585653100711,kayla,NULL
1585653332,1baa4fb752f7ebba39b52132ef756e46,PennController,5,0,color_matching,NULL,PennController,9,_Trial_,End,1585653100711,kayla,NULL
1585653332,1baa4fb752f7ebba39b52132ef756e46,PennController,7,0,color_matching,NULL,PennController,11,_Trial_,Start,1585653100713,kayla,NULL
1585653332,1baa4fb752f7ebba39b52132ef756e46,PennController,7,0,color_matching,NULL,PennController,11,_Header_,Start,1585653100713,kayla,NULL
1585653332,1baa4fb752f7ebba39b52132ef756e46,PennController,7,0,color_matching,NULL,PennController,11,_Header_,End,1585653100977,kayla,NULL
1585653332,1baa4fb752f7ebba39b52132ef756e46,PennController,7,0,color_matching,NULL,PennController,11,_Trial_,End,1585653100978,kayla,NULL
1585653332,1baa4fb752f7ebba39b52132ef756e46,PennController,16,0,color_matching,NULL,PennController,20,_Trial_,Start,1585653100981,kayla,NULL
1585653332,1baa4fb752f7ebba39b52132ef756e46,PennController,16,0,color_matching,NULL,PennController,20,_Header_,Start,1585653100981,kayla,NULL
1585653332,1baa4fb752f7ebba39b52132ef756e46,PennController,16,0,color_matching,NULL,PennController,20,_Header_,End,1585653101243,kayla,NULL
1585653332,1baa4fb752f7ebba39b52132ef756e46,PennController,16,0,color_matching,NULL,PennController,20,_Trial_,End,1585653101244,kayla,NULL
1585653332,1baa4fb752f7ebba39b52132ef756e46,PennController,17,0,color_matching,NULL,PennController,21,_Trial_,Start,1585653101246,kayla,NULL
1585653332,1baa4fb752f7ebba39b52132ef756e46,PennController,17,0,color_matching,NULL,PennController,21,_Header_,Start,1585653101246,kayla,NULL
1585653332,1baa4fb752f7ebba39b52132ef756e46,PennController,17,0,color_matching,NULL,PennController,21,_Header_,End,1585653101511,kayla,NULL
1585653332,1baa4fb752f7ebba39b52132ef756e46,PennController,17,0,color_matching,NULL,PennController,21,_Trial_,End,1585653101513,kayla,NULL
1585653332,1baa4fb752f7ebba39b52132ef756e46,PennController,13,0,color_matching,NULL,PennController,17,_Trial_,Start,1585653101515,kayla,NULL
1585653332,1baa4fb752f7ebba39b52132ef756e46,PennController,13,0,color_matching,NULL,PennController,17,_Header_,Start,1585653101515,kayla,NULL
1585653332,1baa4fb752f7ebba39b52132ef756e46,PennController,13,0,color_matching,NULL,PennController,17,_Header_,End,1585653101777,kayla,NULL
1585653332,1baa4fb752f7ebba39b52132ef756e46,PennController,13,0,color_matching,NULL,PennController,17,_Trial_,End,1585653101778,kayla,NULL
1585653332,1baa4fb752f7ebba39b52132ef756e46,PennController,11,0,color_matching,NULL,PennController,15,_Trial_,Start,1585653101780,kayla,NULL
1585653332,1baa4fb752f7ebba39b52132ef756e46,PennController,11,0,color_matching,NULL,PennController,15,_Header_,Start,1585653101780,kayla,NULL
1585653332,1baa4fb752f7ebba39b52132ef756e46,PennController,11,0,color_matching,NULL,PennController,15,_Header_,End,1585653102044,kayla,NULL
1585653332,1baa4fb752f7ebba39b52132ef756e46,PennController,11,0,color_matching,NULL,PennController,15,_Trial_,End,1585653102044,kayla,NULL
1585653332,1baa4fb752f7ebba39b52132ef756e46,PennController,15,0,color_matching,NULL,PennController,19,_Trial_,Start,1585653102047,kayla,NULL
1585653332,1baa4fb752f7ebba39b52132ef756e46,PennController,15,0,color_matching,NULL,PennController,19,_Header_,Start,1585653102047,kayla,NULL
1585653332,1baa4fb752f7ebba39b52132ef756e46,PennController,15,0,color_matching,NULL,PennController,19,_Header_,End,1585653102311,kayla,NULL
1585653332,1baa4fb752f7ebba39b52132ef756e46,PennController,15,0,color_matching,NULL,PennController,19,_Trial_,End,1585653102311,kayla,NULL
1585653332,1baa4fb752f7ebba39b52132ef756e46,PennController,21,0,practice_stroop,NULL,PennController,2,_Trial_,Start,1585653102313,kayla,NULL
1585653332,1baa4fb752f7ebba39b52132ef756e46,PennController,21,0,practice_stroop,NULL,PennController,2,_Header_,Start,1585653102313,kayla,NULL
1585653332,1baa4fb752f7ebba39b52132ef756e46,PennController,21,0,practice_stroop,NULL,PennController,2,_Header_,End,1585653102577,kayla,NULL
1585653332,1baa4fb752f7ebba39b52132ef756e46,PennController,21,0,practice_stroop,NULL,PennController,2,_Trial_,End,1585653105460,kayla,NULL
1585653332,1baa4fb752f7ebba39b52132ef756e46,PennController,41,0,stroop,NULL,PennController,44,_Trial_,Start,1585653105461,kayla,NULL
1585653332,1baa4fb752f7ebba39b52132ef756e46,PennController,41,0,stroop,NULL,PennController,44,_Header_,Start,1585653105461,kayla,NULL
1585653332,1baa4fb752f7ebba39b52132ef756e46,PennController,41,0,stroop,NULL,PennController,44,_Header_,End,1585653105727,kayla,NULL
1585653332,1baa4fb752f7ebba39b52132ef756e46,PennController,41,0,stroop,NULL,PennController,44,_Trial_,End,1585653107260,kayla,NULL
1585653332,1baa4fb752f7ebba39b52132ef756e46,PennController,42,0,stroop,NULL,PennController,45,_Trial_,Start,1585653107262,kayla,NULL
1585653332,1baa4fb752f7ebba39b52132ef756e46,PennController,42,0,stroop,NULL,PennController,45,_Header_,Start,1585653107262,kayla,NULL
1585653332,1baa4fb752f7ebba39b52132ef756e46,PennController,42,0,stroop,NULL,PennController,45,_Header_,End,1585653107527,kayla,NULL
1585653332,1baa4fb752f7ebba39b52132ef756e46,PennController,42,0,stroop,NULL,PennController,45,_Trial_,End,1585653109060,kayla,NULL
1585653332,1baa4fb752f7ebba39b52132ef756e46,PennController,27,0,stroop,NULL,PennController,30,_Trial_,Start,1585653109062,kayla,NULL
1585653332,1baa4fb752f7ebba39b52132ef756e46,PennController,27,0,stroop,NULL,PennController,30,_Header_,Start,1585653109062,kayla,NULL
1585653332,1baa4fb752f7ebba39b52132ef756e46,PennController,27,0,stroop,NULL,PennController,30,_Header_,End,1585653109327,kayla,NULL
1585653332,1baa4fb752f7ebba39b52132ef756e46,PennController,27,0,stroop,NULL,PennController,30,_Trial_,End,1585653110860,kayla,NULL
1585653332,1baa4fb752f7ebba39b52132ef756e46,PennController,45,0,stroop,NULL,PennController,48,_Trial_,Start,1585653110864,kayla,NULL
1585653332,1baa4fb752f7ebba39b52132ef756e46,PennController,45,0,stroop,NULL,PennController,48,_Header_,Start,1585653110864,kayla,NULL
1585653332,1baa4fb752f7ebba39b52132ef756e46,PennController,45,0,stroop,NULL,PennController,48,_Header_,End,1585653111127,kayla,NULL
1585653332,1baa4fb752f7ebba39b52132ef756e46,PennController,45,0,stroop,NULL,PennController,48,_Trial_,End,1585653112660,kayla,NULL
1585653332,1baa4fb752f7ebba39b52132ef756e46,PennController,34,0,stroop,NULL,PennController,37,_Trial_,Start,1585653112662,kayla,NULL
1585653332,1baa4fb752f7ebba39b52132ef756e46,PennController,34,0,stroop,NULL,PennController,37,_Header_,Start,1585653112662,kayla,NULL
1585653332,1baa4fb752f7ebba39b52132ef756e46,PennController,34,0,stroop,NULL,PennController,37,_Header_,End,1585653112927,kayla,NULL
1585653332,1baa4fb752f7ebba39b52132ef756e46,PennController,34,0,stroop,NULL,PennController,37,_Trial_,End,1585653114460,kayla,NULL
1585653332,1baa4fb752f7ebba39b52132ef756e46,PennController,44,0,stroop,NULL,PennController,47,_Trial_,Start,1585653114462,kayla,NULL
1585653332,1baa4fb752f7ebba39b52132ef756e46,PennController,44,0,stroop,NULL,PennController,47,_Header_,Start,1585653114462,kayla,NULL
1585653332,1baa4fb752f7ebba39b52132ef756e46,PennController,44,0,stroop,NULL,PennController,47,_Header_,End,1585653114727,kayla,NULL
1585653332,1baa4fb752f7ebba39b52132ef756e46,PennController,44,0,stroop,NULL,PennController,47,_Trial_,End,1585653116260,kayla,NULL
1585653332,1baa4fb752f7ebba39b52132ef756e46,PennController,23,0,stroop,NULL,PennController,26,_Trial_,Start,1585653116262,kayla,NULL
1585653332,1baa4fb752f7ebba39b52132ef756e46,PennController,23,0,stroop,NULL,PennController,26,_Header_,Start,1585653116262,kayla,NULL
1585653332,1baa4fb752f7ebba39b52132ef756e46,PennController,23,0,stroop,NULL,PennController,26,_Header_,End,1585653116527,kayla,NULL
1585653332,1baa4fb752f7ebba39b52132ef756e46,PennController,23,0,stroop,NULL,PennController,26,_Trial_,End,1585653118060,kayla,NULL
1585653332,1baa4fb752f7ebba39b52132ef756e46,PennController,38,0,stroop,NULL,PennController,41,_Trial_,Start,1585653118062,kayla,NULL
1585653332,1baa4fb752f7ebba39b52132ef756e46,PennController,38,0,stroop,NULL,PennController,41,_Header_,Start,1585653118062,kayla,NULL
1585653332,1baa4fb752f7ebba39b52132ef756e46,PennController,38,0,stroop,NULL,PennController,41,_Header_,End,1585653118327,kayla,NULL
1585653332,1baa4fb752f7ebba39b52132ef756e46,PennController,38,0,stroop,NULL,PennController,41,_Trial_,End,1585653119860,kayla,NULL
1585653332,1baa4fb752f7ebba39b52132ef756e46,PennController,25,0,stroop,NULL,PennController,28,_Trial_,Start,1585653119861,kayla,NULL
1585653332,1baa4fb752f7ebba39b52132ef756e46,PennController,25,0,stroop,NULL,PennController,28,_Header_,Start,1585653119861,kayla,NULL
1585653332,1baa4fb752f7ebba39b52132ef756e46,PennController,25,0,stroop,NULL,PennController,28,_Header_,End,1585653120127,kayla,NULL
1585653332,1baa4fb752f7ebba39b52132ef756e46,PennController,25,0,stroop,NULL,PennController,28,_Trial_,End,1585653121660,kayla,NULL
1585653332,1baa4fb752f7ebba39b52132ef756e46,PennController,24,0,stroop,NULL,PennController,27,_Trial_,Start,1585653121662,kayla,NULL
1585653332,1baa4fb752f7ebba39b52132ef756e46,PennController,24,0,stroop,NULL,PennController,27,_Header_,Start,1585653121662,kayla,NULL
1585653332,1baa4fb752f7ebba39b52132ef756e46,PennController,24,0,stroop,NULL,PennController,27,_Header_,End,1585653121927,kayla,NULL
1585653332,1baa4fb752f7ebba39b52132ef756e46,PennController,24,0,stroop,NULL,PennController,27,_Trial_,End,1585653123460,kayla,NULL
1585653332,1baa4fb752f7ebba39b52132ef756e46,PennController,22,0,stroop,NULL,PennController,25,_Trial_,Start,1585653123464,kayla,NULL
1585653332,1baa4fb752f7ebba39b52132ef756e46,PennController,22,0,stroop,NULL,PennController,25,_Header_,Start,1585653123464,kayla,NULL
1585653332,1baa4fb752f7ebba39b52132ef756e46,PennController,22,0,stroop,NULL,PennController,25,_Header_,End,1585653123726,kayla,NULL
1585653332,1baa4fb752f7ebba39b52132ef756e46,PennController,22,0,stroop,NULL,PennController,25,_Trial_,End,1585653125260,kayla,NULL
1585653332,1baa4fb752f7ebba39b52132ef756e46,PennController,30,0,stroop,NULL,PennController,33,_Trial_,Start,1585653125262,kayla,NULL
1585653332,1baa4fb752f7ebba39b52132ef756e46,PennController,30,0,stroop,NULL,PennController,33,_Header_,Start,1585653125262,kayla,NULL
1585653332,1baa4fb752f7ebba39b52132ef756e46,PennController,30,0,stroop,NULL,PennController,33,_Header_,End,1585653125527,kayla,NULL
1585653332,1baa4fb752f7ebba39b52132ef756e46,PennController,30,0,stroop,NULL,PennController,33,_Trial_,End,1585653127060,kayla,NULL
1585653332,1baa4fb752f7ebba39b52132ef756e46,PennController,31,0,stroop,NULL,PennController,34,_Trial_,Start,1585653127062,kayla,NULL
1585653332,1baa4fb752f7ebba39b52132ef756e46,PennController,31,0,stroop,NULL,PennController,34,_Header_,Start,1585653127062,kayla,NULL
1585653332,1baa4fb752f7ebba39b52132ef756e46,PennController,31,0,stroop,NULL,PennController,34,_Header_,End,1585653127327,kayla,NULL
1585653332,1baa4fb752f7ebba39b52132ef756e46,PennController,31,0,stroop,NULL,PennController,34,_Trial_,End,1585653128860,kayla,NULL
1585653332,1baa4fb752f7ebba39b52132ef756e46,PennController,29,0,stroop,NULL,PennController,32,_Trial_,Start,1585653128862,kayla,NULL
1585653332,1baa4fb752f7ebba39b52132ef756e46,PennController,29,0,stroop,NULL,PennController,32,_Header_,Start,1585653128862,kayla,NULL
1585653332,1baa4fb752f7ebba39b52132ef756e46,PennController,29,0,stroop,NULL,PennController,32,_Header_,End,1585653129127,kayla,NULL
1585653332,1baa4fb752f7ebba39b52132ef756e46,PennController,29,0,stroop,NULL,PennController,32,_Trial_,End,1585653130660,kayla,NULL
1585653332,1baa4fb752f7ebba39b52132ef756e46,PennController,32,0,stroop,NULL,PennController,35,_Trial_,Start,1585653130662,kayla,NULL
1585653332,1baa4fb752f7ebba39b52132ef756e46,PennController,32,0,stroop,NULL,PennController,35,_Header_,Start,1585653130662,kayla,NULL
1585653332,1baa4fb752f7ebba39b52132ef756e46,PennController,32,0,stroop,NULL,PennController,35,_Header_,End,1585653130927,kayla,NULL
1585653332,1baa4fb752f7ebba39b52132ef756e46,PennController,32,0,stroop,NULL,PennController,35,_Trial_,End,1585653132460,kayla,NULL
1585653332,1baa4fb752f7ebba39b52132ef756e46,PennController,43,0,stroop,NULL,PennController,46,_Trial_,Start,1585653132462,kayla,NULL
1585653332,1baa4fb752f7ebba39b52132ef756e46,PennController,43,0,stroop,NULL,PennController,46,_Header_,Start,1585653132462,kayla,NULL
1585653332,1baa4fb752f7ebba39b52132ef756e46,PennController,43,0,stroop,NULL,PennController,46,_Header_,End,1585653132727,kayla,NULL
1585653332,1baa4fb752f7ebba39b52132ef756e46,PennController,43,0,stroop,NULL,PennController,46,_Trial_,End,1585653132727,kayla,NULL
1585653332,1baa4fb752f7ebba39b52132ef756e46,PennController,39,0,stroop,NULL,PennController,42,_Trial_,Start,1585653132729,kayla,NULL
1585653332,1baa4fb752f7ebba39b52132ef756e46,PennController,39,0,stroop,NULL,PennController,42,_Header_,Start,1585653132729,kayla,NULL
1585653332,1baa4fb752f7ebba39b52132ef756e46,PennController,39,0,stroop,NULL,PennController,42,_Header_,End,1585653132993,kayla,NULL
1585653332,1baa4fb752f7ebba39b52132ef756e46,PennController,39,0,stroop,NULL,PennController,42,_Trial_,End,1585653132994,kayla,NULL
1585653332,1baa4fb752f7ebba39b52132ef756e46,PennController,36,0,stroop,NULL,PennController,39,_Trial_,Start,1585653132995,kayla,NULL
1585653332,1baa4fb752f7ebba39b52132ef756e46,PennController,36,0,stroop,NULL,PennController,39,_Header_,Start,1585653132995,kayla,NULL
1585653332,1baa4fb752f7ebba39b52132ef756e46,PennController,36,0,stroop,NULL,PennController,39,_Header_,End,1585653133260,kayla,NULL
1585653332,1baa4fb752f7ebba39b52132ef756e46,PennController,36,0,stroop,NULL,PennController,39,_Trial_,End,1585653133260,kayla,NULL
1585653332,1baa4fb752f7ebba39b52132ef756e46,PennController,35,0,stroop,NULL,PennController,38,_Trial_,Start,1585653133262,kayla,NULL
1585653332,1baa4fb752f7ebba39b52132ef756e46,PennController,35,0,stroop,NULL,PennController,38,_Header_,Start,1585653133262,kayla,NULL
1585653332,1baa4fb752f7ebba39b52132ef756e46,PennController,35,0,stroop,NULL,PennController,38,_Header_,End,1585653133527,kayla,NULL
1585653332,1baa4fb752f7ebba39b52132ef756e46,PennController,35,0,stroop,NULL,PennController,38,_Trial_,End,1585653133527,kayla,NULL
1585653332,1baa4fb752f7ebba39b52132ef756e46,PennController,26,0,stroop,NULL,PennController,29,_Trial_,Start,1585653133528,kayla,NULL
1585653332,1baa4fb752f7ebba39b52132ef756e46,PennController,26,0,stroop,NULL,PennController,29,_Header_,Start,1585653133528,kayla,NULL
1585653332,1baa4fb752f7ebba39b52132ef756e46,PennController,26,0,stroop,NULL,PennController,29,_Header_,End,1585653133793,kayla,NULL
1585653332,1baa4fb752f7ebba39b52132ef756e46,PennController,26,0,stroop,NULL,PennController,29,_Trial_,End,1585653133794,kayla,NULL
1585653332,1baa4fb752f7ebba39b52132ef756e46,PennController,28,0,stroop,NULL,PennController,31,_Trial_,Start,1585653133795,kayla,NULL
1585653332,1baa4fb752f7ebba39b52132ef756e46,PennController,28,0,stroop,NULL,PennController,31,_Header_,Start,1585653133795,kayla,NULL
1585653332,1baa4fb752f7ebba39b52132ef756e46,PennController,28,0,stroop,NULL,PennController,31,_Header_,End,1585653134061,kayla,NULL
1585653332,1baa4fb752f7ebba39b52132ef756e46,PennController,28,0,stroop,NULL,PennController,31,_Trial_,End,1585653134061,kayla,NULL
1585653332,1baa4fb752f7ebba39b52132ef756e46,PennController,37,0,stroop,NULL,PennController,40,_Trial_,Start,1585653134063,kayla,NULL
1585653332,1baa4fb752f7ebba39b52132ef756e46,PennController,37,0,stroop,NULL,PennController,40,_Header_,Start,1585653134063,kayla,NULL
1585653332,1baa4fb752f7ebba39b52132ef756e46,PennController,37,0,stroop,NULL,PennController,40,_Header_,End,1585653134327,kayla,NULL
1585653332,1baa4fb752f7ebba39b52132ef756e46,PennController,37,0,stroop,NULL,PennController,40,_Trial_,End,1585653134327,kayla,NULL
1585653332,1baa4fb752f7ebba39b52132ef756e46,PennController,33,0,stroop,NULL,PennController,36,_Trial_,Start,1585653134329,kayla,NULL
1585653332,1baa4fb752f7ebba39b52132ef756e46,PennController,33,0,stroop,NULL,PennController,36,_Header_,Start,1585653134329,kayla,NULL
1585653332,1baa4fb752f7ebba39b52132ef756e46,PennController,33,0,stroop,NULL,PennController,36,_Header_,End,1585653134593,kayla,NULL
1585653332,1baa4fb752f7ebba39b52132ef756e46,PennController,33,0,stroop,NULL,PennController,36,_Trial_,End,1585653134594,kayla,NULL
1585653332,1baa4fb752f7ebba39b52132ef756e46,PennController,40,0,stroop,NULL,PennController,43,_Trial_,Start,1585653134595,kayla,NULL
1585653332,1baa4fb752f7ebba39b52132ef756e46,PennController,40,0,stroop,NULL,PennController,43,_Header_,Start,1585653134595,kayla,NULL
1585653332,1baa4fb752f7ebba39b52132ef756e46,PennController,40,0,stroop,NULL,PennController,43,_Header_,End,1585653134860,kayla,NULL
1585653332,1baa4fb752f7ebba39b52132ef756e46,PennController,40,0,stroop,NULL,PennController,43,_Trial_,End,1585653134860,kayla,NULL
1585653332,1baa4fb752f7ebba39b52132ef756e46,PennController,46,0,practice_combined,NULL,PennController,3,_Trial_,Start,1585653134864,kayla,NULL
1585653332,1baa4fb752f7ebba39b52132ef756e46,PennController,46,0,practice_combined,NULL,PennController,3,_Header_,Start,1585653134864,kayla,NULL
1585653332,1baa4fb752f7ebba39b52132ef756e46,PennController,46,0,practice_combined,NULL,PennController,3,_Header_,End,1585653135127,kayla,NULL
1585653332,1baa4fb752f7ebba39b52132ef756e46,PennController,46,0,practice_combined,NULL,PennController,3,_Trial_,End,1585653150706,kayla,NULL
1585653332,1baa4fb752f7ebba39b52132ef756e46,PennController,50,0,practice,NULL,PennController,52,_Trial_,Start,1585653150708,kayla,NULL
1585653332,1baa4fb752f7ebba39b52132ef756e46,PennController,50,0,practice,NULL,PennController,52,_Header_,Start,1585653150708,kayla,NULL
1585653332,1baa4fb752f7ebba39b52132ef756e46,PennController,50,0,practice,NULL,PennController,52,_Header_,End,1585653150967,kayla,NULL
1585653332,1baa4fb752f7ebba39b52132ef756e46,PennController,50,0,practice,NULL,Key,QWE2,Key,NA,Never,kayla,NULL
1585653332,1baa4fb752f7ebba39b52132ef756e46,PennController,50,0,practice,NULL,Key,QWE2,Key,NA,Never,kayla,(failed keypresses happened)
1585653332,1baa4fb752f7ebba39b52132ef756e46,PennController,50,0,practice,NULL,PennController,52,_Trial_,End,1585653155452,kayla,NULL
1585653332,1baa4fb752f7ebba39b52132ef756e46,PennController,54,0,practice,NULL,PennController,56,_Trial_,Start,1585653155454,kayla,NULL
1585653332,1baa4fb752f7ebba39b52132ef756e46,PennController,54,0,practice,NULL,PennController,56,_Header_,Start,1585653155454,kayla,NULL
1585653332,1baa4fb752f7ebba39b52132ef756e46,PennController,54,0,practice,NULL,PennController,56,_Header_,End,1585653155717,kayla,NULL
1585653332,1baa4fb752f7ebba39b52132ef756e46,PennController,54,0,practice,NULL,Key,QWE2,Key,NA,Never,kayla,NULL
1585653332,1baa4fb752f7ebba39b52132ef756e46,PennController,54,0,practice,NULL,Key,QWE2,Key,NA,Never,kayla,(failed keypresses happened)
1585653332,1baa4fb752f7ebba39b52132ef756e46,PennController,54,0,practice,NULL,PennController,56,_Trial_,End,1585653159751,kayla,NULL
1585653332,1baa4fb752f7ebba39b52132ef756e46,PennController,47,0,practice,NULL,PennController,49,_Trial_,Start,1585653159754,kayla,NULL
1585653332,1baa4fb752f7ebba39b52132ef756e46,PennController,47,0,practice,NULL,PennController,49,_Header_,Start,1585653159754,kayla,NULL
1585653332,1baa4fb752f7ebba39b52132ef756e46,PennController,47,0,practice,NULL,PennController,49,_Header_,End,1585653160017,kayla,NULL
1585653332,1baa4fb752f7ebba39b52132ef756e46,PennController,47,0,practice,NULL,Key,QWE2,Key,NA,Never,kayla,NULL
1585653332,1baa4fb752f7ebba39b52132ef756e46,PennController,47,0,practice,NULL,Key,QWE2,Key,NA,Never,kayla,(failed keypresses happened)
1585653332,1baa4fb752f7ebba39b52132ef756e46,PennController,47,0,practice,NULL,PennController,49,_Trial_,End,1585653163535,kayla,NULL
1585653332,1baa4fb752f7ebba39b52132ef756e46,PennController,53,0,practice,NULL,PennController,55,_Trial_,Start,1585653163537,kayla,NULL
1585653332,1baa4fb752f7ebba39b52132ef756e46,PennController,53,0,practice,NULL,PennController,55,_Header_,Start,1585653163537,kayla,NULL
1585653332,1baa4fb752f7ebba39b52132ef756e46,PennController,53,0,practice,NULL,PennController,55,_Header_,End,1585653163800,kayla,NULL
1585653332,1baa4fb752f7ebba39b52132ef756e46,PennController,53,0,practice,NULL,Key,QWE2,Key,NA,Never,kayla,NULL
1585653332,1baa4fb752f7ebba39b52132ef756e46,PennController,53,0,practice,NULL,Key,QWE2,Key,NA,Never,kayla,(failed keypresses happened)
1585653332,1baa4fb752f7ebba39b52132ef756e46,PennController,53,0,practice,NULL,PennController,55,_Trial_,End,1585653167700,kayla,NULL
1585653332,1baa4fb752f7ebba39b52132ef756e46,PennController,52,0,practice,NULL,PennController,54,_Trial_,Start,1585653167702,kayla,NULL
1585653332,1baa4fb752f7ebba39b52132ef756e46,PennController,52,0,practice,NULL,PennController,54,_Header_,Start,1585653167702,kayla,NULL
1585653332,1baa4fb752f7ebba39b52132ef756e46,PennController,52,0,practice,NULL,PennController,54,_Header_,End,1585653167967,kayla,NULL
1585653332,1baa4fb752f7ebba39b52132ef756e46,PennController,52,0,practice,NULL,Key,QWE,Key,NA,Never,kayla,(failed keypresses happened)
1585653332,1baa4fb752f7ebba39b52132ef756e46,PennController,52,0,practice,NULL,PennController,54,_Trial_,End,1585653170927,kayla,NULL
1585653332,1baa4fb752f7ebba39b52132ef756e46,PennController,51,0,practice,NULL,PennController,53,_Trial_,Start,1585653170929,kayla,NULL
1585653332,1baa4fb752f7ebba39b52132ef756e46,PennController,51,0,practice,NULL,PennController,53,_Header_,Start,1585653170929,kayla,NULL
1585653332,1baa4fb752f7ebba39b52132ef756e46,PennController,51,0,practice,NULL,PennController,53,_Header_,End,1585653171183,kayla,NULL
1585653332,1baa4fb752f7ebba39b52132ef756e46,PennController,51,0,practice,NULL,Key,QWE,Key,NA,Never,kayla,(failed keypresses happened)
1585653332,1baa4fb752f7ebba39b52132ef756e46,PennController,51,0,practice,NULL,PennController,53,_Trial_,End,1585653175287,kayla,NULL
1585653332,1baa4fb752f7ebba39b52132ef756e46,PennController,49,0,practice,NULL,PennController,51,_Trial_,Start,1585653175289,kayla,NULL
1585653332,1baa4fb752f7ebba39b52132ef756e46,PennController,49,0,practice,NULL,PennController,51,_Header_,Start,1585653175289,kayla,NULL
1585653332,1baa4fb752f7ebba39b52132ef756e46,PennController,49,0,practice,NULL,PennController,51,_Header_,End,1585653175550,kayla,NULL
1585653332,1baa4fb752f7ebba39b52132ef756e46,PennController,49,0,practice,NULL,Key,QWE,Key,NA,Never,kayla,(failed keypresses happened)
1585653332,1baa4fb752f7ebba39b52132ef756e46,PennController,49,0,practice,NULL,PennController,51,_Trial_,End,1585653181087,kayla,NULL
1585653332,1baa4fb752f7ebba39b52132ef756e46,PennController,48,0,practice,NULL,PennController,50,_Trial_,Start,1585653181089,kayla,NULL
1585653332,1baa4fb752f7ebba39b52132ef756e46,PennController,48,0,practice,NULL,PennController,50,_Header_,Start,1585653181089,kayla,NULL
1585653332,1baa4fb752f7ebba39b52132ef756e46,PennController,48,0,practice,NULL,PennController,50,_Header_,End,1585653181350,kayla,NULL
1585653332,1baa4fb752f7ebba39b52132ef756e46,PennController,48,0,practice,NULL,Key,QWE,Key,NA,Never,kayla,(failed keypresses happened)
1585653332,1baa4fb752f7ebba39b52132ef756e46,PennController,48,0,practice,NULL,PennController,50,_Trial_,End,1585653186795,kayla,NULL
1585653332,1baa4fb752f7ebba39b52132ef756e46,PennController,55,0,exp_instru,NULL,PennController,4,_Trial_,Start,1585653186797,kayla,NULL
1585653332,1baa4fb752f7ebba39b52132ef756e46,PennController,55,0,exp_instru,NULL,PennController,4,_Header_,Start,1585653186797,kayla,NULL
1585653332,1baa4fb752f7ebba39b52132ef756e46,PennController,55,0,exp_instru,NULL,PennController,4,_Header_,End,1585653187050,kayla,NULL
1585653332,1baa4fb752f7ebba39b52132ef756e46,PennController,55,0,exp_instru,NULL,PennController,4,_Trial_,End,1585653197038,kayla,NULL
# Columns below this comment are as follows:
# 1. Time results were received.
# 2. MD5 hash of participant's IP address.
# 3. Controller name.
# 4. Item number.
# 5. Element number.
# 6. Type.
# 7. Group.
# 8. PennElementType.
# 9. PennElementName.
# 10. Parameter.
# 11. Value.
# 12. EventTime.
# 13. ID.
# 14. Block.
# 15. Group.
# 16. item.
# 17. Condition.
# 18. Comments.
1585653332,1baa4fb752f7ebba39b52132ef756e46,PennController,64,0,block1,NULL,PennController,65,_Trial_,Start,1585653197040,kayla,1,1,39,F,NULL
1585653332,1baa4fb752f7ebba39b52132ef756e46,PennController,64,0,block1,NULL,PennController,65,_Header_,Start,1585653197040,kayla,1,1,39,F,NULL
1585653332,1baa4fb752f7ebba39b52132ef756e46,PennController,64,0,block1,NULL,PennController,65,_Header_,End,1585653197300,kayla,1,1,39,F,NULL
1585653332,1baa4fb752f7ebba39b52132ef756e46,PennController,64,0,block1,NULL,Key,QWE2,Key,NA,Never,kayla,1,1,39,F,NULL
1585653332,1baa4fb752f7ebba39b52132ef756e46,PennController,64,0,block1,NULL,Key,QWE2,Key,NA,Never,kayla,1,1,39,F,(failed keypresses happened)
# Columns below this comment are as follows:
# 1. Time results were received.
# 2. MD5 hash of participant's IP address.
# 3. Controller name.
# 4. Item number.
# 5. Element number.
# 6. Type.
# 7. Group.
# 8. PennElementType.
# 9. PennElementName.
# 10. Parameter.
# 11. Value.
# 12. EventTime.
# 13. ID.
# 14. Block.
# 15. Group.
# 16. item.
# 17. Condition.
# 18. Reading time.
# 19. Newline?
# 20. Sentence (or sentence MD5).
# 21. Comments.
1585653332,1baa4fb752f7ebba39b52132ef756e46,PennController,64,0,block1,NULL,Controller-DashedSentence,DashedSentence2,1,The,1585653200292,kayla,1,1,39,F,231,false,The former drug addict's memoirs were met with critical acclaim.,Any addtional parameters were appended as additional columns
1585653332,1baa4fb752f7ebba39b52132ef756e46,PennController,64,0,block1,NULL,Controller-DashedSentence,DashedSentence2,2,former,1585653200292,kayla,1,1,39,F,187,false,The former drug addict's memoirs were met with critical acclaim.,Any addtional parameters were appended as additional columns
1585653332,1baa4fb752f7ebba39b52132ef756e46,PennController,64,0,block1,NULL,Controller-DashedSentence,DashedSentence2,3,drug,1585653200292,kayla,1,1,39,F,134,false,The former drug addict's memoirs were met with critical acclaim.,Any addtional parameters were appended as additional columns
1585653332,1baa4fb752f7ebba39b52132ef756e46,PennController,64,0,block1,NULL,Controller-DashedSentence,DashedSentence2,4,addict's,1585653200292,kayla,1,1,39,F,262,false,The former drug addict's memoirs were met with critical acclaim.,Any addtional parameters were appended as additional columns
1585653332,1baa4fb752f7ebba39b52132ef756e46,PennController,64,0,block1,NULL,Controller-DashedSentence,DashedSentence2,5,memoirs,1585653200292,kayla,1,1,39,F,443,false,The former drug addict's memoirs were met with critical acclaim.,Any addtional parameters were appended as additional columns
1585653332,1baa4fb752f7ebba39b52132ef756e46,PennController,64,0,block1,NULL,Controller-DashedSentence,DashedSentence2,6,were,1585653200292,kayla,1,1,39,F,159,false,The former drug addict's memoirs were met with critical acclaim.,Any addtional parameters were appended as additional columns
1585653332,1baa4fb752f7ebba39b52132ef756e46,PennController,64,0,block1,NULL,Controller-DashedSentence,DashedSentence2,7,met,1585653200292,kayla,1,1,39,F,180,false,The former drug addict's memoirs were met with critical acclaim.,Any addtional parameters were appended as additional columns
1585653332,1baa4fb752f7ebba39b52132ef756e46,PennController,64,0,block1,NULL,Controller-DashedSentence,DashedSentence2,8,with,1585653200292,kayla,1,1,39,F,213,false,The former drug addict's memoirs were met with critical acclaim.,Any addtional parameters were appended as additional columns
1585653332,1baa4fb752f7ebba39b52132ef756e46,PennController,64,0,block1,NULL,Controller-DashedSentence,DashedSentence2,9,critical,1585653200292,kayla,1,1,39,F,200,false,The former drug addict's memoirs were met with critical acclaim.,Any addtional parameters were appended as additional columns
1585653332,1baa4fb752f7ebba39b52132ef756e46,PennController,64,0,block1,NULL,Controller-DashedSentence,DashedSentence2,10,acclaim.,1585653200292,kayla,1,1,39,F,332,false,The former drug addict's memoirs were met with critical acclaim.,Any addtional parameters were appended as additional columns
# The lines below this comment are in groups of 2.
# The formats of the lines in each of these groups are as follows:
#
# Line 1:
#     Col. 1: Time results were received.
#     Col. 2: MD5 hash of participant's IP address.
#     Col. 3: Controller name.
#     Col. 4: Item number.
#     Col. 5: Element number.
#     Col. 6: Type.
#     Col. 7: Group.
#     Col. 8: PennElementType.
#     Col. 9: PennElementName.
#     Col. 10: Parameter.
#     Col. 11: Value.
#     Col. 12: EventTime.
#     Col. 13: ID.
#     Col. 14: Block.
#     Col. 15: Group.
#     Col. 16: item.
#     Col. 17: Condition.
#     Col. 18: Whether or not answer was correct (NULL if N/A).
#     Col. 19: Time taken to answer.
#     Col. 20: Comments.
# Line 2:
#     Col. 1: Time results were received.
#     Col. 2: MD5 hash of participant's IP address.
#     Col. 3: Controller name.
#     Col. 4: Item number.
#     Col. 5: Element number.
#     Col. 6: Type.
#     Col. 7: Group.
#     Col. 8: PennElementType.
#     Col. 9: PennElementName.
#     Col. 10: Parameter.
#     Col. 11: Value.
#     Col. 12: EventTime.
#     Col. 13: ID.
#     Col. 14: Block.
#     Col. 15: Group.
#     Col. 16: item.
#     Col. 17: Condition.
#     Col. 18: Comments.
1585653332,1baa4fb752f7ebba39b52132ef756e46,PennController,64,0,block1,NULL,Controller-Question,Question2,Were the former drug addict's memoires met with acclaim?,yes,1585653201179,kayla,1,1,39,F,NULL,886,Any addtional parameters were appended as additional columns
1585653332,1baa4fb752f7ebba39b52132ef756e46,PennController,64,0,block1,NULL,PennController,65,_Trial_,End,1585653201700,kayla,1,1,39,F,NULL
# Columns below this comment are as follows:
# 1. Time results were received.
# 2. MD5 hash of participant's IP address.
# 3. Controller name.
# 4. Item number.
# 5. Element number.
# 6. Type.
# 7. Group.
# 8. PennElementType.
# 9. PennElementName.
# 10. Parameter.
# 11. Value.
# 12. EventTime.
# 13. ID.
# 14. Block.
# 15. Group.
# 16. item.
# 17. Condition.
# 18. Comments.
1585653332,1baa4fb752f7ebba39b52132ef756e46,PennController,63,0,block1,NULL,PennController,64,_Trial_,Start,1585653201702,kayla,1,1,38,F,NULL
1585653332,1baa4fb752f7ebba39b52132ef756e46,PennController,63,0,block1,NULL,PennController,64,_Header_,Start,1585653201702,kayla,1,1,38,F,NULL
1585653332,1baa4fb752f7ebba39b52132ef756e46,PennController,63,0,block1,NULL,PennController,64,_Header_,End,1585653201966,kayla,1,1,38,F,NULL
1585653332,1baa4fb752f7ebba39b52132ef756e46,PennController,63,0,block1,NULL,Key,QWE2,Key,NA,Never,kayla,1,1,38,F,NULL
1585653332,1baa4fb752f7ebba39b52132ef756e46,PennController,63,0,block1,NULL,Key,QWE2,Key,NA,Never,kayla,1,1,38,F,(failed keypresses happened)
# Columns below this comment are as follows:
# 1. Time results were received.
# 2. MD5 hash of participant's IP address.
# 3. Controller name.
# 4. Item number.
# 5. Element number.
# 6. Type.
# 7. Group.
# 8. PennElementType.
# 9. PennElementName.
# 10. Parameter.
# 11. Value.
# 12. EventTime.
# 13. ID.
# 14. Block.
# 15. Group.
# 16. item.
# 17. Condition.
# 18. Reading time.
# 19. Newline?
# 20. Sentence (or sentence MD5).
# 21. Comments.
1585653332,1baa4fb752f7ebba39b52132ef756e46,PennController,63,0,block1,NULL,Controller-DashedSentence,DashedSentence2,1,The,1585653204611,kayla,1,1,38,F,161,false,The prisoners were unable to cross the field without being seen.,Any addtional parameters were appended as additional columns
1585653332,1baa4fb752f7ebba39b52132ef756e46,PennController,63,0,block1,NULL,Controller-DashedSentence,DashedSentence2,2,prisoners,1585653204611,kayla,1,1,38,F,184,false,The prisoners were unable to cross the field without being seen.,Any addtional parameters were appended as additional columns
1585653332,1baa4fb752f7ebba39b52132ef756e46,PennController,63,0,block1,NULL,Controller-DashedSentence,DashedSentence2,3,were,1585653204611,kayla,1,1,38,F,162,false,The prisoners were unable to cross the field without being seen.,Any addtional parameters were appended as additional columns
1585653332,1baa4fb752f7ebba39b52132ef756e46,PennController,63,0,block1,NULL,Controller-DashedSentence,DashedSentence2,4,unable,1585653204611,kayla,1,1,38,F,190,false,The prisoners were unable to cross the field without being seen.,Any addtional parameters were appended as additional columns
1585653332,1baa4fb752f7ebba39b52132ef756e46,PennController,63,0,block1,NULL,Controller-DashedSentence,DashedSentence2,5,to,1585653204611,kayla,1,1,38,F,164,false,The prisoners were unable to cross the field without being seen.,Any addtional parameters were appended as additional columns
1585653332,1baa4fb752f7ebba39b52132ef756e46,PennController,63,0,block1,NULL,Controller-DashedSentence,DashedSentence2,6,cross,1585653204611,kayla,1,1,38,F,177,false,The prisoners were unable to cross the field without being seen.,Any addtional parameters were appended as additional columns
1585653332,1baa4fb752f7ebba39b52132ef756e46,PennController,63,0,block1,NULL,Controller-DashedSentence,DashedSentence2,7,the,1585653204611,kayla,1,1,38,F,196,false,The prisoners were unable to cross the field without being seen.,Any addtional parameters were appended as additional columns
1585653332,1baa4fb752f7ebba39b52132ef756e46,PennController,63,0,block1,NULL,Controller-DashedSentence,DashedSentence2,8,field,1585653204611,kayla,1,1,38,F,198,false,The prisoners were unable to cross the field without being seen.,Any addtional parameters were appended as additional columns
1585653332,1baa4fb752f7ebba39b52132ef756e46,PennController,63,0,block1,NULL,Controller-DashedSentence,DashedSentence2,9,without,1585653204611,kayla,1,1,38,F,167,false,The prisoners were unable to cross the field without being seen.,Any addtional parameters were appended as additional columns
1585653332,1baa4fb752f7ebba39b52132ef756e46,PennController,63,0,block1,NULL,Controller-DashedSentence,DashedSentence2,10,being,1585653204611,kayla,1,1,38,F,203,false,The prisoners were unable to cross the field without being seen.,Any addtional parameters were appended as additional columns
1585653332,1baa4fb752f7ebba39b52132ef756e46,PennController,63,0,block1,NULL,Controller-DashedSentence,DashedSentence2,11,seen.,1585653204611,kayla,1,1,38,F,380,false,The prisoners were unable to cross the field without being seen.,Any addtional parameters were appended as additional columns
# The lines below this comment are in groups of 2.
# The formats of the lines in each of these groups are as follows:
#
# Line 1:
#     Col. 1: Time results were received.
#     Col. 2: MD5 hash of participant's IP address.
#     Col. 3: Controller name.
#     Col. 4: Item number.
#     Col. 5: Element number.
#     Col. 6: Type.
#     Col. 7: Group.
#     Col. 8: PennElementType.
#     Col. 9: PennElementName.
#     Col. 10: Parameter.
#     Col. 11: Value.
#     Col. 12: EventTime.
#     Col. 13: ID.
#     Col. 14: Block.
#     Col. 15: Group.
#     Col. 16: item.
#     Col. 17: Condition.
#     Col. 18: Whether or not answer was correct (NULL if N/A).
#     Col. 19: Time taken to answer.
#     Col. 20: Comments.
# Line 2:
#     Col. 1: Time results were received.
#     Col. 2: MD5 hash of participant's IP address.
#     Col. 3: Controller name.
#     Col. 4: Item number.
#     Col. 5: Element number.
#     Col. 6: Type.
#     Col. 7: Group.
#     Col. 8: PennElementType.
#     Col. 9: PennElementName.
#     Col. 10: Parameter.
#     Col. 11: Value.
#     Col. 12: EventTime.
#     Col. 13: ID.
#     Col. 14: Block.
#     Col. 15: Group.
#     Col. 16: item.
#     Col. 17: Condition.
#     Col. 18: Comments.
1585653332,1baa4fb752f7ebba39b52132ef756e46,PennController,63,0,block1,NULL,Controller-Question,Question2,Did the prisoners cross the field without being seen?,yes,1585653205202,kayla,1,1,38,F,NULL,590,Any addtional parameters were appended as additional columns
1585653332,1baa4fb752f7ebba39b52132ef756e46,PennController,63,0,block1,NULL,PennController,64,_Trial_,End,1585653205717,kayla,1,1,38,F,NULL
# Columns below this comment are as follows:
# 1. Time results were received.
# 2. MD5 hash of participant's IP address.
# 3. Controller name.
# 4. Item number.
# 5. Element number.
# 6. Type.
# 7. Group.
# 8. PennElementType.
# 9. PennElementName.
# 10. Parameter.
# 11. Value.
# 12. EventTime.
# 13. ID.
# 14. Block.
# 15. Group.
# 16. item.
# 17. Condition.
# 18. Comments.
1585653332,1baa4fb752f7ebba39b52132ef756e46,PennController,56,0,block1,NULL,PennController,57,_Trial_,Start,1585653205719,kayla,1,1,1,A,NULL
1585653332,1baa4fb752f7ebba39b52132ef756e46,PennController,56,0,block1,NULL,PennController,57,_Header_,Start,1585653205719,kayla,1,1,1,A,NULL
1585653332,1baa4fb752f7ebba39b52132ef756e46,PennController,56,0,block1,NULL,PennController,57,_Header_,End,1585653205983,kayla,1,1,1,A,NULL
1585653332,1baa4fb752f7ebba39b52132ef756e46,PennController,56,0,block1,NULL,Key,QWE,Key,NA,Never,kayla,1,1,1,A,(failed keypresses happened)
# Columns below this comment are as follows:
# 1. Time results were received.
# 2. MD5 hash of participant's IP address.
# 3. Controller name.
# 4. Item number.
# 5. Element number.
# 6. Type.
# 7. Group.
# 8. PennElementType.
# 9. PennElementName.
# 10. Parameter.
# 11. Value.
# 12. EventTime.
# 13. ID.
# 14. Block.
# 15. Group.
# 16. item.
# 17. Condition.
# 18. Reading time.
# 19. Newline?
# 20. Sentence (or sentence MD5).
# 21. Comments.
1585653332,1baa4fb752f7ebba39b52132ef756e46,PennController,56,0,block1,NULL,Controller-DashedSentence,DashedSentence,1,The,1585653209403,kayla,1,1,1,A,179,false,The thoughtless secretaries called on the balcony returned to their desks.,Any addtional parameters were appended as additional columns
1585653332,1baa4fb752f7ebba39b52132ef756e46,PennController,56,0,block1,NULL,Controller-DashedSentence,DashedSentence,2,thoughtless,1585653209403,kayla,1,1,1,A,199,false,The thoughtless secretaries called on the balcony returned to their desks.,Any addtional parameters were appended as additional columns
1585653332,1baa4fb752f7ebba39b52132ef756e46,PennController,56,0,block1,NULL,Controller-DashedSentence,DashedSentence,3,secretaries,1585653209403,kayla,1,1,1,A,160,false,The thoughtless secretaries called on the balcony returned to their desks.,Any addtional parameters were appended as additional columns
1585653332,1baa4fb752f7ebba39b52132ef756e46,PennController,56,0,block1,NULL,Controller-DashedSentence,DashedSentence,4,called,1585653209403,kayla,1,1,1,A,216,false,The thoughtless secretaries called on the balcony returned to their desks.,Any addtional parameters were appended as additional columns
1585653332,1baa4fb752f7ebba39b52132ef756e46,PennController,56,0,block1,NULL,Controller-DashedSentence,DashedSentence,5,on,1585653209403,kayla,1,1,1,A,188,false,The thoughtless secretaries called on the balcony returned to their desks.,Any addtional parameters were appended as additional columns
1585653332,1baa4fb752f7ebba39b52132ef756e46,PennController,56,0,block1,NULL,Controller-DashedSentence,DashedSentence,6,the,1585653209403,kayla,1,1,1,A,341,false,The thoughtless secretaries called on the balcony returned to their desks.,Any addtional parameters were appended as additional columns
1585653332,1baa4fb752f7ebba39b52132ef756e46,PennController,56,0,block1,NULL,Controller-DashedSentence,DashedSentence,7,balcony,1585653209403,kayla,1,1,1,A,132,false,The thoughtless secretaries called on the balcony returned to their desks.,Any addtional parameters were appended as additional columns
1585653332,1baa4fb752f7ebba39b52132ef756e46,PennController,56,0,block1,NULL,Controller-DashedSentence,DashedSentence,8,returned,1585653209403,kayla,1,1,1,A,209,false,The thoughtless secretaries called on the balcony returned to their desks.,Any addtional parameters were appended as additional columns
1585653332,1baa4fb752f7ebba39b52132ef756e46,PennController,56,0,block1,NULL,Controller-DashedSentence,DashedSentence,9,to,1585653209403,kayla,1,1,1,A,291,false,The thoughtless secretaries called on the balcony returned to their desks.,Any addtional parameters were appended as additional columns
1585653332,1baa4fb752f7ebba39b52132ef756e46,PennController,56,0,block1,NULL,Controller-DashedSentence,DashedSentence,10,their,1585653209403,kayla,1,1,1,A,197,false,The thoughtless secretaries called on the balcony returned to their desks.,Any addtional parameters were appended as additional columns
1585653332,1baa4fb752f7ebba39b52132ef756e46,PennController,56,0,block1,NULL,Controller-DashedSentence,DashedSentence,11,desks.,1585653209403,kayla,1,1,1,A,321,false,The thoughtless secretaries called on the balcony returned to their desks.,Any addtional parameters were appended as additional columns
# The lines below this comment are in groups of 2.
# The formats of the lines in each of these groups are as follows:
#
# Line 1:
#     Col. 1: Time results were received.
#     Col. 2: MD5 hash of participant's IP address.
#     Col. 3: Controller name.
#     Col. 4: Item number.
#     Col. 5: Element number.
#     Col. 6: Type.
#     Col. 7: Group.
#     Col. 8: PennElementType.
#     Col. 9: PennElementName.
#     Col. 10: Parameter.
#     Col. 11: Value.
#     Col. 12: EventTime.
#     Col. 13: ID.
#     Col. 14: Block.
#     Col. 15: Group.
#     Col. 16: item.
#     Col. 17: Condition.
#     Col. 18: Whether or not answer was correct (NULL if N/A).
#     Col. 19: Time taken to answer.
#     Col. 20: Comments.
# Line 2:
#     Col. 1: Time results were received.
#     Col. 2: MD5 hash of participant's IP address.
#     Col. 3: Controller name.
#     Col. 4: Item number.
#     Col. 5: Element number.
#     Col. 6: Type.
#     Col. 7: Group.
#     Col. 8: PennElementType.
#     Col. 9: PennElementName.
#     Col. 10: Parameter.
#     Col. 11: Value.
#     Col. 12: EventTime.
#     Col. 13: ID.
#     Col. 14: Block.
#     Col. 15: Group.
#     Col. 16: item.
#     Col. 17: Condition.
#     Col. 18: Comments.
1585653332,1baa4fb752f7ebba39b52132ef756e46,PennController,56,0,block1,NULL,Controller-Question,Question,Did someone call the secretaries while they were on the balcony?,yes,1585653209832,kayla,1,1,1,A,NULL,428,Any addtional parameters were appended as additional columns
1585653332,1baa4fb752f7ebba39b52132ef756e46,PennController,56,0,block1,NULL,PennController,57,_Trial_,End,1585653209834,kayla,1,1,1,A,NULL
# Columns below this comment are as follows:
# 1. Time results were received.
# 2. MD5 hash of participant's IP address.
# 3. Controller name.
# 4. Item number.
# 5. Element number.
# 6. Type.
# 7. Group.
# 8. PennElementType.
# 9. PennElementName.
# 10. Parameter.
# 11. Value.
# 12. EventTime.
# 13. ID.
# 14. Block.
# 15. Group.
# 16. item.
# 17. Condition.
# 18. Comments.
1585653332,1baa4fb752f7ebba39b52132ef756e46,PennController,62,0,block1,NULL,PennController,63,_Trial_,Start,1585653209837,kayla,1,1,37,F,NULL
1585653332,1baa4fb752f7ebba39b52132ef756e46,PennController,62,0,block1,NULL,PennController,63,_Header_,Start,1585653209837,kayla,1,1,37,F,NULL
1585653332,1baa4fb752f7ebba39b52132ef756e46,PennController,62,0,block1,NULL,PennController,63,_Header_,End,1585653210090,kayla,1,1,37,F,NULL
1585653332,1baa4fb752f7ebba39b52132ef756e46,PennController,62,0,block1,NULL,Key,QWE2,Key,NA,Never,kayla,1,1,37,F,NULL
1585653332,1baa4fb752f7ebba39b52132ef756e46,PennController,62,0,block1,NULL,Key,QWE2,Key,NA,Never,kayla,1,1,37,F,(failed keypresses happened)
# Columns below this comment are as follows:
# 1. Time results were received.
# 2. MD5 hash of participant's IP address.
# 3. Controller name.
# 4. Item number.
# 5. Element number.
# 6. Type.
# 7. Group.
# 8. PennElementType.
# 9. PennElementName.
# 10. Parameter.
# 11. Value.
# 12. EventTime.
# 13. ID.
# 14. Block.
# 15. Group.
# 16. item.
# 17. Condition.
# 18. Reading time.
# 19. Newline?
# 20. Sentence (or sentence MD5).
# 21. Comments.
1585653332,1baa4fb752f7ebba39b52132ef756e46,PennController,62,0,block1,NULL,Controller-DashedSentence,DashedSentence2,1,The,1585653213428,kayla,1,1,37,F,279,false,The new student was noticed by everyone when he came into the room.,Any addtional parameters were appended as additional columns
1585653332,1baa4fb752f7ebba39b52132ef756e46,PennController,62,0,block1,NULL,Controller-DashedSentence,DashedSentence2,2,new,1585653213428,kayla,1,1,37,F,173,false,The new student was noticed by everyone when he came into the room.,Any addtional parameters were appended as additional columns
1585653332,1baa4fb752f7ebba39b52132ef756e46,PennController,62,0,block1,NULL,Controller-DashedSentence,DashedSentence2,3,student,1585653213428,kayla,1,1,37,F,170,false,The new student was noticed by everyone when he came into the room.,Any addtional parameters were appended as additional columns
1585653332,1baa4fb752f7ebba39b52132ef756e46,PennController,62,0,block1,NULL,Controller-DashedSentence,DashedSentence2,4,was,1585653213428,kayla,1,1,37,F,181,false,The new student was noticed by everyone when he came into the room.,Any addtional parameters were appended as additional columns
1585653332,1baa4fb752f7ebba39b52132ef756e46,PennController,62,0,block1,NULL,Controller-DashedSentence,DashedSentence2,5,noticed,1585653213428,kayla,1,1,37,F,257,false,The new student was noticed by everyone when he came into the room.,Any addtional parameters were appended as additional columns
1585653332,1baa4fb752f7ebba39b52132ef756e46,PennController,62,0,block1,NULL,Controller-DashedSentence,DashedSentence2,6,by,1585653213428,kayla,1,1,37,F,190,false,The new student was noticed by everyone when he came into the room.,Any addtional parameters were appended as additional columns
1585653332,1baa4fb752f7ebba39b52132ef756e46,PennController,62,0,block1,NULL,Controller-DashedSentence,DashedSentence2,7,everyone,1585653213428,kayla,1,1,37,F,316,false,The new student was noticed by everyone when he came into the room.,Any addtional parameters were appended as additional columns
1585653332,1baa4fb752f7ebba39b52132ef756e46,PennController,62,0,block1,NULL,Controller-DashedSentence,DashedSentence2,8,when,1585653213428,kayla,1,1,37,F,175,false,The new student was noticed by everyone when he came into the room.,Any addtional parameters were appended as additional columns
1585653332,1baa4fb752f7ebba39b52132ef756e46,PennController,62,0,block1,NULL,Controller-DashedSentence,DashedSentence2,9,he,1585653213428,kayla,1,1,37,F,297,false,The new student was noticed by everyone when he came into the room.,Any addtional parameters were appended as additional columns
1585653332,1baa4fb752f7ebba39b52132ef756e46,PennController,62,0,block1,NULL,Controller-DashedSentence,DashedSentence2,10,came,1585653213428,kayla,1,1,37,F,153,false,The new student was noticed by everyone when he came into the room.,Any addtional parameters were appended as additional columns
1585653332,1baa4fb752f7ebba39b52132ef756e46,PennController,62,0,block1,NULL,Controller-DashedSentence,DashedSentence2,11,into,1585653213428,kayla,1,1,37,F,198,false,The new student was noticed by everyone when he came into the room.,Any addtional parameters were appended as additional columns
1585653332,1baa4fb752f7ebba39b52132ef756e46,PennController,62,0,block1,NULL,Controller-DashedSentence,DashedSentence2,12,the,1585653213428,kayla,1,1,37,F,189,false,The new student was noticed by everyone when he came into the room.,Any addtional parameters were appended as additional columns
1585653332,1baa4fb752f7ebba39b52132ef756e46,PennController,62,0,block1,NULL,Controller-DashedSentence,DashedSentence2,13,room.,1585653213428,kayla,1,1,37,F,236,false,The new student was noticed by everyone when he came into the room.,Any addtional parameters were appended as additional columns
# The lines below this comment are in groups of 2.
# The formats of the lines in each of these groups are as follows:
#
# Line 1:
#     Col. 1: Time results were received.
#     Col. 2: MD5 hash of participant's IP address.
#     Col. 3: Controller name.
#     Col. 4: Item number.
#     Col. 5: Element number.
#     Col. 6: Type.
#     Col. 7: Group.
#     Col. 8: PennElementType.
#     Col. 9: PennElementName.
#     Col. 10: Parameter.
#     Col. 11: Value.
#     Col. 12: EventTime.
#     Col. 13: ID.
#     Col. 14: Block.
#     Col. 15: Group.
#     Col. 16: item.
#     Col. 17: Condition.
#     Col. 18: Whether or not answer was correct (NULL if N/A).
#     Col. 19: Time taken to answer.
#     Col. 20: Comments.
# Line 2:
#     Col. 1: Time results were received.
#     Col. 2: MD5 hash of participant's IP address.
#     Col. 3: Controller name.
#     Col. 4: Item number.
#     Col. 5: Element number.
#     Col. 6: Type.
#     Col. 7: Group.
#     Col. 8: PennElementType.
#     Col. 9: PennElementName.
#     Col. 10: Parameter.
#     Col. 11: Value.
#     Col. 12: EventTime.
#     Col. 13: ID.
#     Col. 14: Block.
#     Col. 15: Group.
#     Col. 16: item.
#     Col. 17: Condition.
#     Col. 18: Comments.
1585653332,1baa4fb752f7ebba39b52132ef756e46,PennController,62,0,block1,NULL,Controller-Question,Question2,Did the new student come into the room?,yes,1585653214048,kayla,1,1,37,F,NULL,618,Any addtional parameters were appended as additional columns
1585653332,1baa4fb752f7ebba39b52132ef756e46,PennController,62,0,block1,NULL,PennController,63,_Trial_,End,1585653214557,kayla,1,1,37,F,NULL
# Columns below this comment are as follows:
# 1. Time results were received.
# 2. MD5 hash of participant's IP address.
# 3. Controller name.
# 4. Item number.
# 5. Element number.
# 6. Type.
# 7. Group.
# 8. PennElementType.
# 9. PennElementName.
# 10. Parameter.
# 11. Value.
# 12. EventTime.
# 13. ID.
# 14. Block.
# 15. Group.
# 16. item.
# 17. Condition.
# 18. Comments.
1585653332,1baa4fb752f7ebba39b52132ef756e46,PennController,66,0,block1,NULL,PennController,67,_Trial_,Start,1585653214559,kayla,1,1,41,F,NULL
1585653332,1baa4fb752f7ebba39b52132ef756e46,PennController,66,0,block1,NULL,PennController,67,_Header_,Start,1585653214559,kayla,1,1,41,F,NULL
1585653332,1baa4fb752f7ebba39b52132ef756e46,PennController,66,0,block1,NULL,PennController,67,_Header_,End,1585653214823,kayla,1,1,41,F,NULL
1585653332,1baa4fb752f7ebba39b52132ef756e46,PennController,66,0,block1,NULL,Key,QWE2,Key,NA,Never,kayla,1,1,41,F,NULL
1585653332,1baa4fb752f7ebba39b52132ef756e46,PennController,66,0,block1,NULL,Key,QWE2,Key,NA,Never,kayla,1,1,41,F,(failed keypresses happened)
# Columns below this comment are as follows:
# 1. Time results were received.
# 2. MD5 hash of participant's IP address.
# 3. Controller name.
# 4. Item number.
# 5. Element number.
# 6. Type.
# 7. Group.
# 8. PennElementType.
# 9. PennElementName.
# 10. Parameter.
# 11. Value.
# 12. EventTime.
# 13. ID.
# 14. Block.
# 15. Group.
# 16. item.
# 17. Condition.
# 18. Reading time.
# 19. Newline?
# 20. Sentence (or sentence MD5).
# 21. Comments.
1585653332,1baa4fb752f7ebba39b52132ef756e46,PennController,66,0,block1,NULL,Controller-DashedSentence,DashedSentence2,1,The,1585653217530,kayla,1,1,41,F,207,false,The power plant deserved more attention from the candidates during the election.,Any addtional parameters were appended as additional columns
1585653332,1baa4fb752f7ebba39b52132ef756e46,PennController,66,0,block1,NULL,Controller-DashedSentence,DashedSentence2,2,power,1585653217530,kayla,1,1,41,F,216,false,The power plant deserved more attention from the candidates during the election.,Any addtional parameters were appended as additional columns
1585653332,1baa4fb752f7ebba39b52132ef756e46,PennController,66,0,block1,NULL,Controller-DashedSentence,DashedSentence2,3,plant,1585653217530,kayla,1,1,41,F,168,false,The power plant deserved more attention from the candidates during the election.,Any addtional parameters were appended as additional columns
1585653332,1baa4fb752f7ebba39b52132ef756e46,PennController,66,0,block1,NULL,Controller-DashedSentence,DashedSentence2,4,deserved,1585653217530,kayla,1,1,41,F,236,false,The power plant deserved more attention from the candidates during the election.,Any addtional parameters were appended as additional columns
1585653332,1baa4fb752f7ebba39b52132ef756e46,PennController,66,0,block1,NULL,Controller-DashedSentence,DashedSentence2,5,more,1585653217530,kayla,1,1,41,F,164,false,The power plant deserved more attention from the candidates during the election.,Any addtional parameters were appended as additional columns
1585653332,1baa4fb752f7ebba39b52132ef756e46,PennController,66,0,block1,NULL,Controller-DashedSentence,DashedSentence2,6,attention,1585653217530,kayla,1,1,41,F,193,false,The power plant deserved more attention from the candidates during the election.,Any addtional parameters were appended as additional columns
1585653332,1baa4fb752f7ebba39b52132ef756e46,PennController,66,0,block1,NULL,Controller-DashedSentence,DashedSentence2,7,from,1585653217530,kayla,1,1,41,F,203,false,The power plant deserved more attention from the candidates during the election.,Any addtional parameters were appended as additional columns
1585653332,1baa4fb752f7ebba39b52132ef756e46,PennController,66,0,block1,NULL,Controller-DashedSentence,DashedSentence2,8,the,1585653217530,kayla,1,1,41,F,284,false,The power plant deserved more attention from the candidates during the election.,Any addtional parameters were appended as additional columns
1585653332,1baa4fb752f7ebba39b52132ef756e46,PennController,66,0,block1,NULL,Controller-DashedSentence,DashedSentence2,9,candidates,1585653217530,kayla,1,1,41,F,185,false,The power plant deserved more attention from the candidates during the election.,Any addtional parameters were appended as additional columns
1585653332,1baa4fb752f7ebba39b52132ef756e46,PennController,66,0,block1,NULL,Controller-DashedSentence,DashedSentence2,10,during,1585653217530,kayla,1,1,41,F,172,false,The power plant deserved more attention from the candidates during the election.,Any addtional parameters were appended as additional columns
1585653332,1baa4fb752f7ebba39b52132ef756e46,PennController,66,0,block1,NULL,Controller-DashedSentence,DashedSentence2,11,the,1585653217530,kayla,1,1,41,F,175,false,The power plant deserved more attention from the candidates during the election.,Any addtional parameters were appended as additional columns
1585653332,1baa4fb752f7ebba39b52132ef756e46,PennController,66,0,block1,NULL,Controller-DashedSentence,DashedSentence2,12,election.,1585653217530,kayla,1,1,41,F,221,false,The power plant deserved more attention from the candidates during the election.,Any addtional parameters were appended as additional columns
# The lines below this comment are in groups of 2.
# The formats of the lines in each of these groups are as follows:
#
# Line 1:
#     Col. 1: Time results were received.
#     Col. 2: MD5 hash of participant's IP address.
#     Col. 3: Controller name.
#     Col. 4: Item number.
#     Col. 5: Element number.
#     Col. 6: Type.
#     Col. 7: Group.
#     Col. 8: PennElementType.
#     Col. 9: PennElementName.
#     Col. 10: Parameter.
#     Col. 11: Value.
#     Col. 12: EventTime.
#     Col. 13: ID.
#     Col. 14: Block.
#     Col. 15: Group.
#     Col. 16: item.
#     Col. 17: Condition.
#     Col. 18: Whether or not answer was correct (NULL if N/A).
#     Col. 19: Time taken to answer.
#     Col. 20: Comments.
# Line 2:
#     Col. 1: Time results were received.
#     Col. 2: MD5 hash of participant's IP address.
#     Col. 3: Controller name.
#     Col. 4: Item number.
#     Col. 5: Element number.
#     Col. 6: Type.
#     Col. 7: Group.
#     Col. 8: PennElementType.
#     Col. 9: PennElementName.
#     Col. 10: Parameter.
#     Col. 11: Value.
#     Col. 12: EventTime.
#     Col. 13: ID.
#     Col. 14: Block.
#     Col. 15: Group.
#     Col. 16: item.
#     Col. 17: Condition.
#     Col. 18: Comments.
1585653332,1baa4fb752f7ebba39b52132ef756e46,PennController,66,0,block1,NULL,Controller-Question,Question2,Was the power plant left neglected during the election?,yes,1585653218144,kayla,1,1,41,F,NULL,613,Any addtional parameters were appended as additional columns
1585653332,1baa4fb752f7ebba39b52132ef756e46,PennController,66,0,block1,NULL,PennController,67,_Trial_,End,1585653218657,kayla,1,1,41,F,NULL
# Columns below this comment are as follows:
# 1. Time results were received.
# 2. MD5 hash of participant's IP address.
# 3. Controller name.
# 4. Item number.
# 5. Element number.
# 6. Type.
# 7. Group.
# 8. PennElementType.
# 9. PennElementName.
# 10. Parameter.
# 11. Value.
# 12. EventTime.
# 13. ID.
# 14. Block.
# 15. Group.
# 16. item.
# 17. Condition.
# 18. Comments.
1585653332,1baa4fb752f7ebba39b52132ef756e46,PennController,59,0,block1,NULL,PennController,60,_Trial_,Start,1585653218661,kayla,1,1,4,B,NULL
1585653332,1baa4fb752f7ebba39b52132ef756e46,PennController,59,0,block1,NULL,PennController,60,_Header_,Start,1585653218661,kayla,1,1,4,B,NULL
1585653332,1baa4fb752f7ebba39b52132ef756e46,PennController,59,0,block1,NULL,PennController,60,_Header_,End,1585653218923,kayla,1,1,4,B,NULL
1585653332,1baa4fb752f7ebba39b52132ef756e46,PennController,59,0,block1,NULL,Key,QWE,Key,NA,Never,kayla,1,1,4,B,(failed keypresses happened)
# Columns below this comment are as follows:
# 1. Time results were received.
# 2. MD5 hash of participant's IP address.
# 3. Controller name.
# 4. Item number.
# 5. Element number.
# 6. Type.
# 7. Group.
# 8. PennElementType.
# 9. PennElementName.
# 10. Parameter.
# 11. Value.
# 12. EventTime.
# 13. ID.
# 14. Block.
# 15. Group.
# 16. item.
# 17. Condition.
# 18. Reading time.
# 19. Newline?
# 20. Sentence (or sentence MD5).
# 21. Comments.
1585653332,1baa4fb752f7ebba39b52132ef756e46,PennController,59,0,block1,NULL,Controller-DashedSentence,DashedSentence,1,The,1585653222613,kayla,1,1,4,B,189,false,The postgrad students who were cheated during their exams left to go home.,Any addtional parameters were appended as additional columns
1585653332,1baa4fb752f7ebba39b52132ef756e46,PennController,59,0,block1,NULL,Controller-DashedSentence,DashedSentence,2,postgrad,1585653222613,kayla,1,1,4,B,194,false,The postgrad students who were cheated during their exams left to go home.,Any addtional parameters were appended as additional columns
1585653332,1baa4fb752f7ebba39b52132ef756e46,PennController,59,0,block1,NULL,Controller-DashedSentence,DashedSentence,3,students,1585653222613,kayla,1,1,4,B,218,false,The postgrad students who were cheated during their exams left to go home.,Any addtional parameters were appended as additional columns
1585653332,1baa4fb752f7ebba39b52132ef756e46,PennController,59,0,block1,NULL,Controller-DashedSentence,DashedSentence,4,who,1585653222613,kayla,1,1,4,B,173,false,The postgrad students who were cheated during their exams left to go home.,Any addtional parameters were appended as additional columns
1585653332,1baa4fb752f7ebba39b52132ef756e46,PennController,59,0,block1,NULL,Controller-DashedSentence,DashedSentence,5,were,1585653222613,kayla,1,1,4,B,184,false,The postgrad students who were cheated during their exams left to go home.,Any addtional parameters were appended as additional columns
1585653332,1baa4fb752f7ebba39b52132ef756e46,PennController,59,0,block1,NULL,Controller-DashedSentence,DashedSentence,6,cheated,1585653222613,kayla,1,1,4,B,180,false,The postgrad students who were cheated during their exams left to go home.,Any addtional parameters were appended as additional columns
1585653332,1baa4fb752f7ebba39b52132ef756e46,PennController,59,0,block1,NULL,Controller-DashedSentence,DashedSentence,7,during,1585653222613,kayla,1,1,4,B,191,false,The postgrad students who were cheated during their exams left to go home.,Any addtional parameters were appended as additional columns
1585653332,1baa4fb752f7ebba39b52132ef756e46,PennController,59,0,block1,NULL,Controller-DashedSentence,DashedSentence,8,their,1585653222613,kayla,1,1,4,B,191,false,The postgrad students who were cheated during their exams left to go home.,Any addtional parameters were appended as additional columns
1585653332,1baa4fb752f7ebba39b52132ef756e46,PennController,59,0,block1,NULL,Controller-DashedSentence,DashedSentence,9,exams,1585653222613,kayla,1,1,4,B,189,false,The postgrad students who were cheated during their exams left to go home.,Any addtional parameters were appended as additional columns
1585653332,1baa4fb752f7ebba39b52132ef756e46,PennController,59,0,block1,NULL,Controller-DashedSentence,DashedSentence,10,left,1585653222613,kayla,1,1,4,B,181,false,The postgrad students who were cheated during their exams left to go home.,Any addtional parameters were appended as additional columns
1585653332,1baa4fb752f7ebba39b52132ef756e46,PennController,59,0,block1,NULL,Controller-DashedSentence,DashedSentence,11,to,1585653222613,kayla,1,1,4,B,211,false,The postgrad students who were cheated during their exams left to go home.,Any addtional parameters were appended as additional columns
1585653332,1baa4fb752f7ebba39b52132ef756e46,PennController,59,0,block1,NULL,Controller-DashedSentence,DashedSentence,12,go,1585653222613,kayla,1,1,4,B,228,false,The postgrad students who were cheated during their exams left to go home.,Any addtional parameters were appended as additional columns
1585653332,1baa4fb752f7ebba39b52132ef756e46,PennController,59,0,block1,NULL,Controller-DashedSentence,DashedSentence,13,home.,1585653222613,kayla,1,1,4,B,222,false,The postgrad students who were cheated during their exams left to go home.,Any addtional parameters were appended as additional columns
# The lines below this comment are in groups of 2.
# The formats of the lines in each of these groups are as follows:
#
# Line 1:
#     Col. 1: Time results were received.
#     Col. 2: MD5 hash of participant's IP address.
#     Col. 3: Controller name.
#     Col. 4: Item number.
#     Col. 5: Element number.
#     Col. 6: Type.
#     Col. 7: Group.
#     Col. 8: PennElementType.
#     Col. 9: PennElementName.
#     Col. 10: Parameter.
#     Col. 11: Value.
#     Col. 12: EventTime.
#     Col. 13: ID.
#     Col. 14: Block.
#     Col. 15: Group.
#     Col. 16: item.
#     Col. 17: Condition.
#     Col. 18: Whether or not answer was correct (NULL if N/A).
#     Col. 19: Time taken to answer.
#     Col. 20: Comments.
# Line 2:
#     Col. 1: Time results were received.
#     Col. 2: MD5 hash of participant's IP address.
#     Col. 3: Controller name.
#     Col. 4: Item number.
#     Col. 5: Element number.
#     Col. 6: Type.
#     Col. 7: Group.
#     Col. 8: PennElementType.
#     Col. 9: PennElementName.
#     Col. 10: Parameter.
#     Col. 11: Value.
#     Col. 12: EventTime.
#     Col. 13: ID.
#     Col. 14: Block.
#     Col. 15: Group.
#     Col. 16: item.
#     Col. 17: Condition.
#     Col. 18: Comments.
1585653332,1baa4fb752f7ebba39b52132ef756e46,PennController,59,0,block1,NULL,Controller-Question,Question,Did someone cheat the postgrads during the exams?,yes,1585653223178,kayla,1,1,4,B,NULL,564,Any addtional parameters were appended as additional columns
1585653332,1baa4fb752f7ebba39b52132ef756e46,PennController,59,0,block1,NULL,PennController,60,_Trial_,End,1585653223180,kayla,1,1,4,B,NULL
# Columns below this comment are as follows:
# 1. Time results were received.
# 2. MD5 hash of participant's IP address.
# 3. Controller name.
# 4. Item number.
# 5. Element number.
# 6. Type.
# 7. Group.
# 8. PennElementType.
# 9. PennElementName.
# 10. Parameter.
# 11. Value.
# 12. EventTime.
# 13. ID.
# 14. Block.
# 15. Group.
# 16. item.
# 17. Condition.
# 18. Comments.
1585653332,1baa4fb752f7ebba39b52132ef756e46,PennController,58,0,block1,NULL,PennController,59,_Trial_,Start,1585653223184,kayla,1,1,3,C,NULL
1585653332,1baa4fb752f7ebba39b52132ef756e46,PennController,58,0,block1,NULL,PennController,59,_Header_,Start,1585653223184,kayla,1,1,3,C,NULL
1585653332,1baa4fb752f7ebba39b52132ef756e46,PennController,58,0,block1,NULL,PennController,59,_Header_,End,1585653223440,kayla,1,1,3,C,NULL
1585653332,1baa4fb752f7ebba39b52132ef756e46,PennController,58,0,block1,NULL,Key,QWE,Key,NA,Never,kayla,1,1,3,C,(failed keypresses happened)
# Columns below this comment are as follows:
# 1. Time results were received.
# 2. MD5 hash of participant's IP address.
# 3. Controller name.
# 4. Item number.
# 5. Element number.
# 6. Type.
# 7. Group.
# 8. PennElementType.
# 9. PennElementName.
# 10. Parameter.
# 11. Value.
# 12. EventTime.
# 13. ID.
# 14. Block.
# 15. Group.
# 16. item.
# 17. Condition.
# 18. Reading time.
# 19. Newline?
# 20. Sentence (or sentence MD5).
# 21. Comments.
1585653332,1baa4fb752f7ebba39b52132ef756e46,PennController,58,0,block1,NULL,Controller-DashedSentence,DashedSentence,1,The,1585653226957,kayla,1,1,3,C,198,false,The computer programmers guaranteed the hard problem knew what to do.,Any addtional parameters were appended as additional columns
1585653332,1baa4fb752f7ebba39b52132ef756e46,PennController,58,0,block1,NULL,Controller-DashedSentence,DashedSentence,2,computer,1585653226957,kayla,1,1,3,C,385,false,The computer programmers guaranteed the hard problem knew what to do.,Any addtional parameters were appended as additional columns
1585653332,1baa4fb752f7ebba39b52132ef756e46,PennController,58,0,block1,NULL,Controller-DashedSentence,DashedSentence,3,programmers,1585653226957,kayla,1,1,3,C,333,false,The computer programmers guaranteed the hard problem knew what to do.,Any addtional parameters were appended as additional columns
1585653332,1baa4fb752f7ebba39b52132ef756e46,PennController,58,0,block1,NULL,Controller-DashedSentence,DashedSentence,4,guaranteed,1585653226957,kayla,1,1,3,C,160,false,The computer programmers guaranteed the hard problem knew what to do.,Any addtional parameters were appended as additional columns
1585653332,1baa4fb752f7ebba39b52132ef756e46,PennController,58,0,block1,NULL,Controller-DashedSentence,DashedSentence,5,the,1585653226957,kayla,1,1,3,C,152,false,The computer programmers guaranteed the hard problem knew what to do.,Any addtional parameters were appended as additional columns
1585653332,1baa4fb752f7ebba39b52132ef756e46,PennController,58,0,block1,NULL,Controller-DashedSentence,DashedSentence,6,hard,1585653226957,kayla,1,1,3,C,141,false,The computer programmers guaranteed the hard problem knew what to do.,Any addtional parameters were appended as additional columns
1585653332,1baa4fb752f7ebba39b52132ef756e46,PennController,58,0,block1,NULL,Controller-DashedSentence,DashedSentence,7,problem,1585653226957,kayla,1,1,3,C,290,false,The computer programmers guaranteed the hard problem knew what to do.,Any addtional parameters were appended as additional columns
1585653332,1baa4fb752f7ebba39b52132ef756e46,PennController,58,0,block1,NULL,Controller-DashedSentence,DashedSentence,8,knew,1585653226957,kayla,1,1,3,C,168,false,The computer programmers guaranteed the hard problem knew what to do.,Any addtional parameters were appended as additional columns
1585653332,1baa4fb752f7ebba39b52132ef756e46,PennController,58,0,block1,NULL,Controller-DashedSentence,DashedSentence,9,what,1585653226957,kayla,1,1,3,C,190,false,The computer programmers guaranteed the hard problem knew what to do.,Any addtional parameters were appended as additional columns
1585653332,1baa4fb752f7ebba39b52132ef756e46,PennController,58,0,block1,NULL,Controller-DashedSentence,DashedSentence,10,to,1585653226957,kayla,1,1,3,C,282,false,The computer programmers guaranteed the hard problem knew what to do.,Any addtional parameters were appended as additional columns
1585653332,1baa4fb752f7ebba39b52132ef756e46,PennController,58,0,block1,NULL,Controller-DashedSentence,DashedSentence,11,do.,1585653226957,kayla,1,1,3,C,224,false,The computer programmers guaranteed the hard problem knew what to do.,Any addtional parameters were appended as additional columns
# The lines below this comment are in groups of 2.
# The formats of the lines in each of these groups are as follows:
#
# Line 1:
#     Col. 1: Time results were received.
#     Col. 2: MD5 hash of participant's IP address.
#     Col. 3: Controller name.
#     Col. 4: Item number.
#     Col. 5: Element number.
#     Col. 6: Type.
#     Col. 7: Group.
#     Col. 8: PennElementType.
#     Col. 9: PennElementName.
#     Col. 10: Parameter.
#     Col. 11: Value.
#     Col. 12: EventTime.
#     Col. 13: ID.
#     Col. 14: Block.
#     Col. 15: Group.
#     Col. 16: item.
#     Col. 17: Condition.
#     Col. 18: Whether or not answer was correct (NULL if N/A).
#     Col. 19: Time taken to answer.
#     Col. 20: Comments.
# Line 2:
#     Col. 1: Time results were received.
#     Col. 2: MD5 hash of participant's IP address.
#     Col. 3: Controller name.
#     Col. 4: Item number.
#     Col. 5: Element number.
#     Col. 6: Type.
#     Col. 7: Group.
#     Col. 8: PennElementType.
#     Col. 9: PennElementName.
#     Col. 10: Parameter.
#     Col. 11: Value.
#     Col. 12: EventTime.
#     Col. 13: ID.
#     Col. 14: Block.
#     Col. 15: Group.
#     Col. 16: item.
#     Col. 17: Condition.
#     Col. 18: Comments.
1585653332,1baa4fb752f7ebba39b52132ef756e46,PennController,58,0,block1,NULL,Controller-Question,Question,Were the programmers guaranteed the hard problem?,yes,1585653227564,kayla,1,1,3,C,NULL,606,Any addtional parameters were appended as additional columns
1585653332,1baa4fb752f7ebba39b52132ef756e46,PennController,58,0,block1,NULL,PennController,59,_Trial_,End,1585653227565,kayla,1,1,3,C,NULL
# Columns below this comment are as follows:
# 1. Time results were received.
# 2. MD5 hash of participant's IP address.
# 3. Controller name.
# 4. Item number.
# 5. Element number.
# 6. Type.
# 7. Group.
# 8. PennElementType.
# 9. PennElementName.
# 10. Parameter.
# 11. Value.
# 12. EventTime.
# 13. ID.
# 14. Block.
# 15. Group.
# 16. item.
# 17. Condition.
# 18. Comments.
1585653332,1baa4fb752f7ebba39b52132ef756e46,PennController,57,0,block1,NULL,PennController,58,_Trial_,Start,1585653227567,kayla,1,1,2,D,NULL
1585653332,1baa4fb752f7ebba39b52132ef756e46,PennController,57,0,block1,NULL,PennController,58,_Header_,Start,1585653227567,kayla,1,1,2,D,NULL
1585653332,1baa4fb752f7ebba39b52132ef756e46,PennController,57,0,block1,NULL,PennController,58,_Header_,End,1585653227823,kayla,1,1,2,D,NULL
1585653332,1baa4fb752f7ebba39b52132ef756e46,PennController,57,0,block1,NULL,Key,QWE,Key,NA,Never,kayla,1,1,2,D,(failed keypresses happened)
# Columns below this comment are as follows:
# 1. Time results were received.
# 2. MD5 hash of participant's IP address.
# 3. Controller name.
# 4. Item number.
# 5. Element number.
# 6. Type.
# 7. Group.
# 8. PennElementType.
# 9. PennElementName.
# 10. Parameter.
# 11. Value.
# 12. EventTime.
# 13. ID.
# 14. Block.
# 15. Group.
# 16. item.
# 17. Condition.
# 18. Reading time.
# 19. Newline?
# 20. Sentence (or sentence MD5).
# 21. Comments.
1585653332,1baa4fb752f7ebba39b52132ef756e46,PennController,57,0,block1,NULL,Controller-DashedSentence,DashedSentence,1,The,1585653231642,kayla,1,1,2,D,175,false,The teenage girls who were begged in the hallway answered the headmaster rudely.,Any addtional parameters were appended as additional columns
1585653332,1baa4fb752f7ebba39b52132ef756e46,PennController,57,0,block1,NULL,Controller-DashedSentence,DashedSentence,2,teenage,1585653231642,kayla,1,1,2,D,209,false,The teenage girls who were begged in the hallway answered the headmaster rudely.,Any addtional parameters were appended as additional columns
1585653332,1baa4fb752f7ebba39b52132ef756e46,PennController,57,0,block1,NULL,Controller-DashedSentence,DashedSentence,3,girls,1585653231642,kayla,1,1,2,D,157,false,The teenage girls who were begged in the hallway answered the headmaster rudely.,Any addtional parameters were appended as additional columns
1585653332,1baa4fb752f7ebba39b52132ef756e46,PennController,57,0,block1,NULL,Controller-DashedSentence,DashedSentence,4,who,1585653231642,kayla,1,1,2,D,233,false,The teenage girls who were begged in the hallway answered the headmaster rudely.,Any addtional parameters were appended as additional columns
1585653332,1baa4fb752f7ebba39b52132ef756e46,PennController,57,0,block1,NULL,Controller-DashedSentence,DashedSentence,5,were,1585653231642,kayla,1,1,2,D,145,false,The teenage girls who were begged in the hallway answered the headmaster rudely.,Any addtional parameters were appended as additional columns
1585653332,1baa4fb752f7ebba39b52132ef756e46,PennController,57,0,block1,NULL,Controller-DashedSentence,DashedSentence,6,begged,1585653231642,kayla,1,1,2,D,229,false,The teenage girls who were begged in the hallway answered the headmaster rudely.,Any addtional parameters were appended as additional columns
1585653332,1baa4fb752f7ebba39b52132ef756e46,PennController,57,0,block1,NULL,Controller-DashedSentence,DashedSentence,7,in,1585653231642,kayla,1,1,2,D,193,false,The teenage girls who were begged in the hallway answered the headmaster rudely.,Any addtional parameters were appended as additional columns
1585653332,1baa4fb752f7ebba39b52132ef756e46,PennController,57,0,block1,NULL,Controller-DashedSentence,DashedSentence,8,the,1585653231642,kayla,1,1,2,D,213,false,The teenage girls who were begged in the hallway answered the headmaster rudely.,Any addtional parameters were appended as additional columns
1585653332,1baa4fb752f7ebba39b52132ef756e46,PennController,57,0,block1,NULL,Controller-DashedSentence,DashedSentence,9,hallway,1585653231642,kayla,1,1,2,D,211,false,The teenage girls who were begged in the hallway answered the headmaster rudely.,Any addtional parameters were appended as additional columns
1585653332,1baa4fb752f7ebba39b52132ef756e46,PennController,57,0,block1,NULL,Controller-DashedSentence,DashedSentence,10,answered,1585653231642,kayla,1,1,2,D,208,false,The teenage girls who were begged in the hallway answered the headmaster rudely.,Any addtional parameters were appended as additional columns
1585653332,1baa4fb752f7ebba39b52132ef756e46,PennController,57,0,block1,NULL,Controller-DashedSentence,DashedSentence,11,the,1585653231642,kayla,1,1,2,D,203,false,The teenage girls who were begged in the hallway answered the headmaster rudely.,Any addtional parameters were appended as additional columns
1585653332,1baa4fb752f7ebba39b52132ef756e46,PennController,57,0,block1,NULL,Controller-DashedSentence,DashedSentence,12,headmaster,1585653231642,kayla,1,1,2,D,232,false,The teenage girls who were begged in the hallway answered the headmaster rudely.,Any addtional parameters were appended as additional columns
1585653332,1baa4fb752f7ebba39b52132ef756e46,PennController,57,0,block1,NULL,Controller-DashedSentence,DashedSentence,13,rudely.,1585653231642,kayla,1,1,2,D,402,false,The teenage girls who were begged in the hallway answered the headmaster rudely.,Any addtional parameters were appended as additional columns
# The lines below this comment are in groups of 2.
# The formats of the lines in each of these groups are as follows:
#
# Line 1:
#     Col. 1: Time results were received.
#     Col. 2: MD5 hash of participant's IP address.
#     Col. 3: Controller name.
#     Col. 4: Item number.
#     Col. 5: Element number.
#     Col. 6: Type.
#     Col. 7: Group.
#     Col. 8: PennElementType.
#     Col. 9: PennElementName.
#     Col. 10: Parameter.
#     Col. 11: Value.
#     Col. 12: EventTime.
#     Col. 13: ID.
#     Col. 14: Block.
#     Col. 15: Group.
#     Col. 16: item.
#     Col. 17: Condition.
#     Col. 18: Whether or not answer was correct (NULL if N/A).
#     Col. 19: Time taken to answer.
#     Col. 20: Comments.
# Line 2:
#     Col. 1: Time results were received.
#     Col. 2: MD5 hash of participant's IP address.
#     Col. 3: Controller name.
#     Col. 4: Item number.
#     Col. 5: Element number.
#     Col. 6: Type.
#     Col. 7: Group.
#     Col. 8: PennElementType.
#     Col. 9: PennElementName.
#     Col. 10: Parameter.
#     Col. 11: Value.
#     Col. 12: EventTime.
#     Col. 13: ID.
#     Col. 14: Block.
#     Col. 15: Group.
#     Col. 16: item.
#     Col. 17: Condition.
#     Col. 18: Comments.
1585653332,1baa4fb752f7ebba39b52132ef756e46,PennController,57,0,block1,NULL,Controller-Question,Question,Did someone beg the teeange girls in the hallway?,yes,1585653232574,kayla,1,1,2,D,NULL,931,Any addtional parameters were appended as additional columns
1585653332,1baa4fb752f7ebba39b52132ef756e46,PennController,57,0,block1,NULL,PennController,58,_Trial_,End,1585653232575,kayla,1,1,2,D,NULL
# Columns below this comment are as follows:
# 1. Time results were received.
# 2. MD5 hash of participant's IP address.
# 3. Controller name.
# 4. Item number.
# 5. Element number.
# 6. Type.
# 7. Group.
# 8. PennElementType.
# 9. PennElementName.
# 10. Parameter.
# 11. Value.
# 12. EventTime.
# 13. ID.
# 14. Block.
# 15. Group.
# 16. item.
# 17. Condition.
# 18. Comments.
1585653332,1baa4fb752f7ebba39b52132ef756e46,PennController,61,0,block1,NULL,PennController,62,_Trial_,Start,1585653232577,kayla,1,1,6,D,NULL
1585653332,1baa4fb752f7ebba39b52132ef756e46,PennController,61,0,block1,NULL,PennController,62,_Header_,Start,1585653232577,kayla,1,1,6,D,NULL
1585653332,1baa4fb752f7ebba39b52132ef756e46,PennController,61,0,block1,NULL,PennController,62,_Header_,End,1585653232840,kayla,1,1,6,D,NULL
1585653332,1baa4fb752f7ebba39b52132ef756e46,PennController,61,0,block1,NULL,Key,QWE,Key,NA,Never,kayla,1,1,6,D,(failed keypresses happened)
# Columns below this comment are as follows:
# 1. Time results were received.
# 2. MD5 hash of participant's IP address.
# 3. Controller name.
# 4. Item number.
# 5. Element number.
# 6. Type.
# 7. Group.
# 8. PennElementType.
# 9. PennElementName.
# 10. Parameter.
# 11. Value.
# 12. EventTime.
# 13. ID.
# 14. Block.
# 15. Group.
# 16. item.
# 17. Condition.
# 18. Reading time.
# 19. Newline?
# 20. Sentence (or sentence MD5).
# 21. Comments.
1585653332,1baa4fb752f7ebba39b52132ef756e46,PennController,61,0,block1,NULL,Controller-DashedSentence,DashedSentence,1,The,1585653237028,kayla,1,1,6,D,231,false,The alert soldiers who were unloaded from their helicopter found their target quickly.,Any addtional parameters were appended as additional columns
1585653332,1baa4fb752f7ebba39b52132ef756e46,PennController,61,0,block1,NULL,Controller-DashedSentence,DashedSentence,2,alert,1585653237028,kayla,1,1,6,D,271,false,The alert soldiers who were unloaded from their helicopter found their target quickly.,Any addtional parameters were appended as additional columns
1585653332,1baa4fb752f7ebba39b52132ef756e46,PennController,61,0,block1,NULL,Controller-DashedSentence,DashedSentence,3,soldiers,1585653237028,kayla,1,1,6,D,209,false,The alert soldiers who were unloaded from their helicopter found their target quickly.,Any addtional parameters were appended as additional columns
1585653332,1baa4fb752f7ebba39b52132ef756e46,PennController,61,0,block1,NULL,Controller-DashedSentence,DashedSentence,4,who,1585653237028,kayla,1,1,6,D,226,false,The alert soldiers who were unloaded from their helicopter found their target quickly.,Any addtional parameters were appended as additional columns
1585653332,1baa4fb752f7ebba39b52132ef756e46,PennController,61,0,block1,NULL,Controller-DashedSentence,DashedSentence,5,were,1585653237028,kayla,1,1,6,D,351,false,The alert soldiers who were unloaded from their helicopter found their target quickly.,Any addtional parameters were appended as additional columns
1585653332,1baa4fb752f7ebba39b52132ef756e46,PennController,61,0,block1,NULL,Controller-DashedSentence,DashedSentence,6,unloaded,1585653237028,kayla,1,1,6,D,197,false,The alert soldiers who were unloaded from their helicopter found their target quickly.,Any addtional parameters were appended as additional columns
1585653332,1baa4fb752f7ebba39b52132ef756e46,PennController,61,0,block1,NULL,Controller-DashedSentence,DashedSentence,7,from,1585653237028,kayla,1,1,6,D,190,false,The alert soldiers who were unloaded from their helicopter found their target quickly.,Any addtional parameters were appended as additional columns
1585653332,1baa4fb752f7ebba39b52132ef756e46,PennController,61,0,block1,NULL,Controller-DashedSentence,DashedSentence,8,their,1585653237028,kayla,1,1,6,D,212,false,The alert soldiers who were unloaded from their helicopter found their target quickly.,Any addtional parameters were appended as additional columns
1585653332,1baa4fb752f7ebba39b52132ef756e46,PennController,61,0,block1,NULL,Controller-DashedSentence,DashedSentence,9,helicopter,1585653237028,kayla,1,1,6,D,158,false,The alert soldiers who were unloaded from their helicopter found their target quickly.,Any addtional parameters were appended as additional columns
1585653332,1baa4fb752f7ebba39b52132ef756e46,PennController,61,0,block1,NULL,Controller-DashedSentence,DashedSentence,10,found,1585653237028,kayla,1,1,6,D,200,false,The alert soldiers who were unloaded from their helicopter found their target quickly.,Any addtional parameters were appended as additional columns
1585653332,1baa4fb752f7ebba39b52132ef756e46,PennController,61,0,block1,NULL,Controller-DashedSentence,DashedSentence,11,their,1585653237028,kayla,1,1,6,D,236,false,The alert soldiers who were unloaded from their helicopter found their target quickly.,Any addtional parameters were appended as additional columns
1585653332,1baa4fb752f7ebba39b52132ef756e46,PennController,61,0,block1,NULL,Controller-DashedSentence,DashedSentence,12,target,1585653237028,kayla,1,1,6,D,264,false,The alert soldiers who were unloaded from their helicopter found their target quickly.,Any addtional parameters were appended as additional columns
1585653332,1baa4fb752f7ebba39b52132ef756e46,PennController,61,0,block1,NULL,Controller-DashedSentence,DashedSentence,13,quickly.,1585653237028,kayla,1,1,6,D,351,false,The alert soldiers who were unloaded from their helicopter found their target quickly.,Any addtional parameters were appended as additional columns
# The lines below this comment are in groups of 2.
# The formats of the lines in each of these groups are as follows:
#
# Line 1:
#     Col. 1: Time results were received.
#     Col. 2: MD5 hash of participant's IP address.
#     Col. 3: Controller name.
#     Col. 4: Item number.
#     Col. 5: Element number.
#     Col. 6: Type.
#     Col. 7: Group.
#     Col. 8: PennElementType.
#     Col. 9: PennElementName.
#     Col. 10: Parameter.
#     Col. 11: Value.
#     Col. 12: EventTime.
#     Col. 13: ID.
#     Col. 14: Block.
#     Col. 15: Group.
#     Col. 16: item.
#     Col. 17: Condition.
#     Col. 18: Whether or not answer was correct (NULL if N/A).
#     Col. 19: Time taken to answer.
#     Col. 20: Comments.
# Line 2:
#     Col. 1: Time results were received.
#     Col. 2: MD5 hash of participant's IP address.
#     Col. 3: Controller name.
#     Col. 4: Item number.
#     Col. 5: Element number.
#     Col. 6: Type.
#     Col. 7: Group.
#     Col. 8: PennElementType.
#     Col. 9: PennElementName.
#     Col. 10: Parameter.
#     Col. 11: Value.
#     Col. 12: EventTime.
#     Col. 13: ID.
#     Col. 14: Block.
#     Col. 15: Group.
#     Col. 16: item.
#     Col. 17: Condition.
#     Col. 18: Comments.
1585653332,1baa4fb752f7ebba39b52132ef756e46,PennController,61,0,block1,NULL,Controller-Question,Question,Was the target found by the soldiers in good time?,yes,1585653238546,kayla,1,1,6,D,NULL,1516,Any addtional parameters were appended as additional columns
1585653332,1baa4fb752f7ebba39b52132ef756e46,PennController,61,0,block1,NULL,PennController,62,_Trial_,End,1585653238547,kayla,1,1,6,D,NULL
# Columns below this comment are as follows:
# 1. Time results were received.
# 2. MD5 hash of participant's IP address.
# 3. Controller name.
# 4. Item number.
# 5. Element number.
# 6. Type.
# 7. Group.
# 8. PennElementType.
# 9. PennElementName.
# 10. Parameter.
# 11. Value.
# 12. EventTime.
# 13. ID.
# 14. Block.
# 15. Group.
# 16. item.
# 17. Condition.
# 18. Comments.
1585653332,1baa4fb752f7ebba39b52132ef756e46,PennController,65,0,block1,NULL,PennController,66,_Trial_,Start,1585653238551,kayla,1,1,40,F,NULL
1585653332,1baa4fb752f7ebba39b52132ef756e46,PennController,65,0,block1,NULL,PennController,66,_Header_,Start,1585653238551,kayla,1,1,40,F,NULL
1585653332,1baa4fb752f7ebba39b52132ef756e46,PennController,65,0,block1,NULL,PennController,66,_Header_,End,1585653238806,kayla,1,1,40,F,NULL
1585653332,1baa4fb752f7ebba39b52132ef756e46,PennController,65,0,block1,NULL,Key,QWE2,Key,NA,Never,kayla,1,1,40,F,NULL
1585653332,1baa4fb752f7ebba39b52132ef756e46,PennController,65,0,block1,NULL,Key,QWE2,Key,NA,Never,kayla,1,1,40,F,(failed keypresses happened)
# Columns below this comment are as follows:
# 1. Time results were received.
# 2. MD5 hash of participant's IP address.
# 3. Controller name.
# 4. Item number.
# 5. Element number.
# 6. Type.
# 7. Group.
# 8. PennElementType.
# 9. PennElementName.
# 10. Parameter.
# 11. Value.
# 12. EventTime.
# 13. ID.
# 14. Block.
# 15. Group.
# 16. item.
# 17. Condition.
# 18. Reading time.
# 19. Newline?
# 20. Sentence (or sentence MD5).
# 21. Comments.
1585653332,1baa4fb752f7ebba39b52132ef756e46,PennController,65,0,block1,NULL,Controller-DashedSentence,DashedSentence2,1,The,1585653241558,kayla,1,1,40,F,199,false,The girls on the basketball team practiced and trained all summer.,Any addtional parameters were appended as additional columns
1585653332,1baa4fb752f7ebba39b52132ef756e46,PennController,65,0,block1,NULL,Controller-DashedSentence,DashedSentence2,2,girls,1585653241558,kayla,1,1,40,F,192,false,The girls on the basketball team practiced and trained all summer.,Any addtional parameters were appended as additional columns
1585653332,1baa4fb752f7ebba39b52132ef756e46,PennController,65,0,block1,NULL,Controller-DashedSentence,DashedSentence2,3,on,1585653241558,kayla,1,1,40,F,172,false,The girls on the basketball team practiced and trained all summer.,Any addtional parameters were appended as additional columns
1585653332,1baa4fb752f7ebba39b52132ef756e46,PennController,65,0,block1,NULL,Controller-DashedSentence,DashedSentence2,4,the,1585653241558,kayla,1,1,40,F,184,false,The girls on the basketball team practiced and trained all summer.,Any addtional parameters were appended as additional columns
1585653332,1baa4fb752f7ebba39b52132ef756e46,PennController,65,0,block1,NULL,Controller-DashedSentence,DashedSentence2,5,basketball,1585653241558,kayla,1,1,40,F,254,false,The girls on the basketball team practiced and trained all summer.,Any addtional parameters were appended as additional columns
1585653332,1baa4fb752f7ebba39b52132ef756e46,PennController,65,0,block1,NULL,Controller-DashedSentence,DashedSentence2,6,team,1585653241558,kayla,1,1,40,F,209,false,The girls on the basketball team practiced and trained all summer.,Any addtional parameters were appended as additional columns
1585653332,1baa4fb752f7ebba39b52132ef756e46,PennController,65,0,block1,NULL,Controller-DashedSentence,DashedSentence2,7,practiced,1585653241558,kayla,1,1,40,F,180,false,The girls on the basketball team practiced and trained all summer.,Any addtional parameters were appended as additional columns
1585653332,1baa4fb752f7ebba39b52132ef756e46,PennController,65,0,block1,NULL,Controller-DashedSentence,DashedSentence2,8,and,1585653241558,kayla,1,1,40,F,196,false,The girls on the basketball team practiced and trained all summer.,Any addtional parameters were appended as additional columns
1585653332,1baa4fb752f7ebba39b52132ef756e46,PennController,65,0,block1,NULL,Controller-DashedSentence,DashedSentence2,9,trained,1585653241558,kayla,1,1,40,F,225,false,The girls on the basketball team practiced and trained all summer.,Any addtional parameters were appended as additional columns
1585653332,1baa4fb752f7ebba39b52132ef756e46,PennController,65,0,block1,NULL,Controller-DashedSentence,DashedSentence2,10,all,1585653241558,kayla,1,1,40,F,187,false,The girls on the basketball team practiced and trained all summer.,Any addtional parameters were appended as additional columns
1585653332,1baa4fb752f7ebba39b52132ef756e46,PennController,65,0,block1,NULL,Controller-DashedSentence,DashedSentence2,11,summer.,1585653241558,kayla,1,1,40,F,226,false,The girls on the basketball team practiced and trained all summer.,Any addtional parameters were appended as additional columns
# The lines below this comment are in groups of 2.
# The formats of the lines in each of these groups are as follows:
#
# Line 1:
#     Col. 1: Time results were received.
#     Col. 2: MD5 hash of participant's IP address.
#     Col. 3: Controller name.
#     Col. 4: Item number.
#     Col. 5: Element number.
#     Col. 6: Type.
#     Col. 7: Group.
#     Col. 8: PennElementType.
#     Col. 9: PennElementName.
#     Col. 10: Parameter.
#     Col. 11: Value.
#     Col. 12: EventTime.
#     Col. 13: ID.
#     Col. 14: Block.
#     Col. 15: Group.
#     Col. 16: item.
#     Col. 17: Condition.
#     Col. 18: Whether or not answer was correct (NULL if N/A).
#     Col. 19: Time taken to answer.
#     Col. 20: Comments.
# Line 2:
#     Col. 1: Time results were received.
#     Col. 2: MD5 hash of participant's IP address.
#     Col. 3: Controller name.
#     Col. 4: Item number.
#     Col. 5: Element number.
#     Col. 6: Type.
#     Col. 7: Group.
#     Col. 8: PennElementType.
#     Col. 9: PennElementName.
#     Col. 10: Parameter.
#     Col. 11: Value.
#     Col. 12: EventTime.
#     Col. 13: ID.
#     Col. 14: Block.
#     Col. 15: Group.
#     Col. 16: item.
#     Col. 17: Condition.
#     Col. 18: Comments.
1585653332,1baa4fb752f7ebba39b52132ef756e46,PennController,65,0,block1,NULL,Controller-Question,Question2,Did the girls on the basketball team practice and all summer?,yes,1585653242056,kayla,1,1,40,F,NULL,497,Any addtional parameters were appended as additional columns
1585653332,1baa4fb752f7ebba39b52132ef756e46,PennController,65,0,block1,NULL,PennController,66,_Trial_,End,1585653242573,kayla,1,1,40,F,NULL
# Columns below this comment are as follows:
# 1. Time results were received.
# 2. MD5 hash of participant's IP address.
# 3. Controller name.
# 4. Item number.
# 5. Element number.
# 6. Type.
# 7. Group.
# 8. PennElementType.
# 9. PennElementName.
# 10. Parameter.
# 11. Value.
# 12. EventTime.
# 13. ID.
# 14. Block.
# 15. Group.
# 16. item.
# 17. Condition.
# 18. Comments.
1585653332,1baa4fb752f7ebba39b52132ef756e46,PennController,60,0,block1,NULL,PennController,61,_Trial_,Start,1585653242575,kayla,1,1,5,A,NULL
1585653332,1baa4fb752f7ebba39b52132ef756e46,PennController,60,0,block1,NULL,PennController,61,_Header_,Start,1585653242575,kayla,1,1,5,A,NULL
1585653332,1baa4fb752f7ebba39b52132ef756e46,PennController,60,0,block1,NULL,PennController,61,_Header_,End,1585653242839,kayla,1,1,5,A,NULL
1585653332,1baa4fb752f7ebba39b52132ef756e46,PennController,60,0,block1,NULL,Key,QWE,Key,NA,Never,kayla,1,1,5,A,(failed keypresses happened)
# Columns below this comment are as follows:
# 1. Time results were received.
